timestamp_sec,ecg_mv,emg_uv,eog_uv,spo2_pct,acc_x,acc_y,acc_z,motion_mag,sleep_stage
0.0,-0.0165,40.28,7.55,98.0,0.071,0.149,0.967,0.0193,W
0.01,-0.0381,-84.96,2.0,97.9,0.088,0.152,0.977,0.0075,W
0.02,0.0179,22.63,-5.05,97.8,0.076,0.149,0.987,0.0006,W
0.03,0.0141,71.53,1.69,97.7,0.082,0.154,0.985,0.0005,W
0.04,-0.0178,-87.31,-0.65,98.4,0.09,0.148,0.978,0.0068,W
0.05,-0.0179,0.25,5.23,98.0,0.077,0.148,0.984,0.0017,W
0.06,0.018,-33.34,4.98,98.1,0.076,0.148,0.991,0.005,W
0.07,0.0086,-40.78,-2.75,98.0,0.082,0.151,0.973,0.0124,W
0.08,0.0275,-28.62,-3.78,97.9,0.079,0.155,0.979,0.0059,W
0.09,0.0383,20.09,-3.4,98.2,0.079,0.138,0.985,0.002,W
0.1,0.0245,33.16,1.6,98.1,0.083,0.152,0.973,0.012,W
0.11,-0.0083,8.86,0.09,98.1,0.079,0.155,0.98,0.0042,W
0.12,0.0416,-15.88,2.72,98.0,0.09,0.144,0.978,0.0078,W
0.13,0.067,21.57,1.52,98.0,0.089,0.146,0.978,0.0071,W
0.14,0.0955,39.27,1.81,98.1,0.074,0.148,0.982,0.0038,W
0.15,0.1333,35.83,4.93,97.9,0.085,0.146,0.993,0.0076,W
0.16,0.1774,-16.37,6.1,97.9,0.074,0.146,0.978,0.0081,W
0.17,0.1565,-93.66,0.9,97.9,0.075,0.157,0.978,0.0069,W
0.18,0.1605,-57.7,6.21,98.4,0.073,0.138,0.982,0.0053,W
0.19,0.1015,-5.77,-3.42,97.8,0.084,0.153,0.986,0.0011,W
0.2,0.1162,-24.69,3.5,98.3,0.083,0.149,0.977,0.0086,W
0.21,0.0383,-16.79,6.46,98.1,0.086,0.152,0.985,0.0007,W
0.22,0.0038,32.35,4.26,97.9,0.076,0.148,0.98,0.006,W
0.23,-0.0112,28.68,1.34,97.9,0.078,0.154,0.979,0.006,W
0.24,0.014,-16.32,0.25,98.2,0.079,0.148,0.976,0.0098,W
0.25,0.0061,76.66,3.94,98.3,0.08,0.151,0.977,0.0085,W
0.26,0.0303,-12.52,-0.78,98.1,0.082,0.152,0.982,0.0032,W
0.27,-0.0519,-33.17,-1.38,97.8,0.087,0.156,0.98,0.0041,W
0.28,-0.0575,19.04,9.35,98.0,0.084,0.151,0.979,0.0058,W
0.29,-0.0241,29.2,7.34,97.8,0.08,0.157,0.971,0.0127,W
0.3,0.237,27.44,0.04,98.2,0.08,0.15,0.986,0.0006,W
0.31,0.6931,-43.11,3.17,97.8,0.074,0.157,0.98,0.0051,W
0.32,1.1639,-4.25,-1.56,98.1,0.081,0.153,0.982,0.0029,W
0.33,1.2236,-22.06,-9.71,98.0,0.077,0.157,0.973,0.0115,W
0.34,0.8479,-69.33,-3.78,97.9,0.083,0.147,0.979,0.0067,W
0.35,0.3269,52.21,0.6,97.8,0.081,0.149,0.983,0.0022,W
0.36,-0.0886,-20.89,-1.18,98.2,0.078,0.149,0.98,0.0053,W
0.37,-0.2212,27.49,-0.63,97.9,0.077,0.145,0.986,0.0002,W
0.38,-0.2764,20.99,4.43,98.1,0.076,0.153,0.974,0.0115,W
0.39,-0.1476,37.02,-2.08,98.3,0.075,0.146,0.978,0.0086,W
0.4,-0.0458,-33.65,-6.05,98.1,0.089,0.141,0.988,0.0023,W
0.41,0.0347,-19.6,2.95,97.9,0.077,0.157,0.982,0.0024,W
0.42,0.079,51.84,-1.44,98.0,0.079,0.148,0.979,0.0068,W
0.43,0.0784,22.02,0.98,97.9,0.081,0.153,0.984,0.0012,W
0.44,0.0535,42.72,-0.94,98.0,0.082,0.151,0.977,0.0082,W
0.45,0.0756,73.63,4.89,98.0,0.074,0.144,0.977,0.0098,W
0.46,0.1313,-3.15,-6.45,98.1,0.088,0.144,0.975,0.0108,W
0.47,0.1276,-47.36,-6.88,97.8,0.079,0.148,0.981,0.0045,W
0.48,0.112,6.53,8.51,98.2,0.073,0.137,0.979,0.0085,W
0.49,0.2165,-35.46,9.5,98.0,0.076,0.148,0.985,0.0012,W
0.5,0.2318,-51.04,-4.31,97.8,0.081,0.153,0.979,0.0059,W
0.51,0.265,-30.43,-1.67,98.0,0.078,0.142,0.982,0.0044,W
0.52,0.3409,10.08,12.19,97.8,0.078,0.14,0.983,0.004,W
0.53,0.3293,79.22,3.06,98.0,0.084,0.159,0.987,0.0031,W
0.54,0.3846,25.69,1.25,98.6,0.085,0.148,0.983,0.002,W
0.55,0.3732,-4.15,0.66,98.1,0.078,0.149,0.987,0.0015,W
0.56,0.3828,-3.81,-3.66,97.9,0.082,0.146,0.98,0.006,W
0.57,0.3399,-29.63,3.81,97.9,0.079,0.151,0.976,0.0095,W
0.58,0.3072,-29.45,-2.26,98.0,0.071,0.153,0.974,0.0113,W
0.59,0.25,38.41,-0.06,98.1,0.084,0.156,0.987,0.0029,W
0.6,0.2285,25.54,5.77,98.3,0.07,0.155,0.983,0.0026,W
0.61,0.1775,9.76,2.12,98.1,0.088,0.144,0.981,0.0048,W
0.62,0.134,-7.27,-2.89,98.3,0.077,0.146,0.986,0.0002,W
0.63,0.1044,65.48,-9.51,98.2,0.087,0.147,0.975,0.0102,W
0.64,0.0926,24.19,-5.02,98.1,0.079,0.144,0.974,0.0122,W
0.65,0.0426,70.1,-1.58,98.2,0.081,0.145,0.984,0.0022,W
0.66,0.0624,-8.55,1.61,98.0,0.087,0.149,0.978,0.0064,W
0.67,0.0431,-30.56,4.73,98.0,0.088,0.149,0.982,0.003,W
0.68,0.0773,14.23,3.28,98.0,0.071,0.148,0.993,0.0065,W
0.69,0.0532,-29.18,-4.89,97.9,0.082,0.152,0.986,0.0008,W
0.7,0.0151,9.28,-4.61,98.2,0.084,0.148,0.984,0.0012,W
0.71,0.085,49.61,-7.37,98.3,0.076,0.153,0.985,0.0007,W
0.72,0.0591,-12.25,-7.37,97.9,0.074,0.157,0.984,0.0008,W
0.73,0.09,-53.91,1.1,98.1,0.074,0.164,0.972,0.0115,W
0.74,0.073,48.06,3.61,98.2,0.084,0.153,0.972,0.0121,W
0.75,0.1203,-37.45,3.55,97.9,0.086,0.153,0.981,0.0035,W
0.76,0.1024,67.93,2.59,98.1,0.079,0.152,0.979,0.0065,W
0.77,0.1787,46.16,-1.32,98.0,0.08,0.155,0.978,0.007,W
0.78,0.1684,96.54,-0.27,98.0,0.079,0.151,0.977,0.0086,W
0.79,0.2064,20.59,3.72,98.0,0.071,0.156,0.983,0.0018,W
0.8,0.2034,121.48,-1.7,97.9,0.082,0.15,0.979,0.0058,W
0.81,0.1613,-29.55,4.29,98.1,0.086,0.157,0.982,0.0021,W
0.82,0.133,68.61,-6.83,98.2,0.087,0.158,0.974,0.0097,W
0.83,0.1071,-38.18,-2.98,98.0,0.081,0.145,0.984,0.0017,W
0.84,0.1065,61.35,-5.98,97.9,0.082,0.146,0.986,0.0002,W
0.85,0.0713,-2.27,-3.77,98.1,0.084,0.149,0.981,0.0039,W
0.86,0.0643,-82.93,1.72,98.2,0.083,0.153,0.972,0.0127,W
0.87,0.0536,16.2,-3.26,98.0,0.092,0.153,0.978,0.0058,W
0.88,0.0228,20.41,-2.16,98.1,0.083,0.149,0.976,0.0092,W
0.89,0.0165,42.99,-6.48,98.1,0.087,0.149,0.978,0.0067,W
0.9,0.018,2.78,-5.51,97.9,0.085,0.149,0.975,0.0104,W
0.91,-0.0619,14.83,-2.32,98.4,0.079,0.154,0.98,0.0048,W
0.92,0.0825,-17.6,-4.11,98.0,0.078,0.156,0.971,0.0131,W
0.93,0.4102,38.22,-1.17,98.3,0.085,0.151,0.982,0.0029,W
0.94,0.9107,9.61,-0.32,98.0,0.08,0.15,0.985,0.0008,W
0.95,1.3151,-30.6,-0.15,97.9,0.078,0.145,0.979,0.0077,W
0.96,1.1472,-107.13,-3.26,98.1,0.08,0.154,0.98,0.0047,W
0.97,0.6995,-32.27,-8.98,98.1,0.083,0.157,0.985,0.0007,W
0.98,0.1952,-50.44,-2.91,98.1,0.082,0.154,0.978,0.0066,W
0.99,-0.0713,80.21,1.64,98.2,0.078,0.153,0.986,0.0008,W
1.0,-0.2465,-18.95,1.91,98.0,0.087,0.151,0.982,0.0022,W
1.01,-0.1788,-33.45,7.12,98.1,0.078,0.141,0.994,0.0068,W
1.02,-0.1407,-13.47,0.74,98.1,0.08,0.16,0.972,0.0113,W
1.03,-0.0456,7.33,-9.37,98.0,0.081,0.146,0.974,0.0117,W
1.04,0.0382,-14.6,1.25,97.9,0.087,0.144,0.978,0.0078,W
1.05,0.0843,3.19,3.39,97.9,0.075,0.144,0.979,0.0076,W
1.06,0.0821,19.97,-5.54,97.9,0.075,0.15,0.989,0.0032,W
1.07,0.0848,-60.97,-6.82,98.1,0.08,0.149,0.982,0.0032,W
1.08,0.087,-53.04,9.94,98.0,0.072,0.151,0.981,0.0045,W
1.09,0.1238,11.97,-5.32,98.0,0.078,0.153,0.98,0.0048,W
1.1,0.1694,-72.32,5.63,98.0,0.08,0.141,0.98,0.0063,W
1.11,0.1325,-18.74,-9.18,98.0,0.081,0.161,0.976,0.0073,W
1.12,0.213,-60.33,0.99,98.0,0.079,0.152,0.974,0.0114,W
1.13,0.2409,-11.3,1.4,98.0,0.074,0.141,0.988,0.0006,W
1.14,0.2953,3.76,-1.04,98.0,0.073,0.153,0.974,0.0114,W
1.15,0.3615,38.46,4.36,97.9,0.082,0.137,0.99,0.0031,W
1.16,0.3708,28.77,-7.66,98.2,0.082,0.153,0.974,0.0107,W
1.17,0.3968,49.48,-3.06,98.1,0.076,0.161,0.989,0.0047,W
1.18,0.4107,-25.98,8.94,98.2,0.075,0.16,0.977,0.0068,W
1.19,0.3703,-85.0,-4.1,98.0,0.077,0.153,0.978,0.0066,W
1.2,0.3136,-150.8,-1.2,98.0,0.08,0.149,0.978,0.0073,W
1.21,0.2982,-50.5,-3.14,98.3,0.076,0.147,0.989,0.0028,W
1.22,0.2477,14.89,7.47,98.1,0.085,0.162,0.978,0.005,W
1.23,0.2129,16.7,-1.83,98.4,0.082,0.151,0.985,0.0001,W
1.24,0.1778,40.72,2.02,98.2,0.07,0.147,0.981,0.006,W
1.25,0.1213,6.39,0.43,98.3,0.076,0.155,0.973,0.0121,W
1.26,0.0943,6.29,3.8,98.3,0.088,0.147,0.983,0.0019,W
1.27,0.0998,6.18,-12.42,98.2,0.075,0.15,0.981,0.0046,W
1.28,0.0536,2.36,-7.59,98.3,0.087,0.141,0.979,0.0071,W
1.29,0.0214,28.3,-3.44,98.0,0.076,0.153,0.982,0.0029,W
1.3,0.0285,-103.74,-10.95,98.1,0.082,0.157,0.984,0.0004,W
1.31,0.043,-5.16,1.01,98.1,0.077,0.144,0.971,0.0154,W
1.32,0.0346,70.15,8.21,98.3,0.085,0.151,0.984,0.0005,W
1.33,0.0443,17.1,-0.23,98.2,0.083,0.146,0.976,0.01,W
1.34,0.0216,150.23,6.53,98.1,0.068,0.149,0.978,0.0086,W
1.35,0.0449,4.12,-14.47,98.1,0.068,0.153,0.984,0.0021,W
1.36,0.0265,-12.06,-5.69,97.9,0.083,0.154,0.98,0.0047,W
1.37,0.0973,106.82,-3.43,98.1,0.078,0.149,0.985,0.0007,W
1.38,0.102,35.69,1.34,98.0,0.08,0.157,0.986,0.0012,W
1.39,0.1169,39.89,-10.03,98.1,0.077,0.146,0.974,0.0116,W
1.4,0.112,33.03,3.2,98.4,0.078,0.153,0.977,0.0078,W
1.41,0.1583,53.91,-4.5,98.0,0.09,0.149,0.982,0.0031,W
1.42,0.1954,75.54,-8.33,98.3,0.076,0.158,0.981,0.0035,W
1.43,0.1286,41.68,-2.01,98.3,0.081,0.157,0.973,0.011,W
1.44,0.1261,3.89,-4.78,98.1,0.092,0.156,0.986,0.0021,W
1.45,0.0648,23.59,0.28,98.0,0.083,0.15,0.978,0.0073,W
1.46,0.0989,-5.21,-0.87,98.0,0.079,0.148,0.98,0.0061,W
1.47,0.0941,42.68,3.85,98.2,0.091,0.152,0.977,0.0075,W
1.48,0.0257,101.96,-3.86,98.1,0.085,0.147,0.987,0.0015,W
1.49,0.0464,24.15,2.82,98.2,0.076,0.152,0.982,0.0039,W
1.5,0.0134,-45.71,-5.46,98.1,0.074,0.161,0.976,0.0079,W
1.51,-0.0033,87.44,-5.26,98.1,0.085,0.145,0.98,0.006,W
1.52,0.0173,23.02,5.17,98.1,0.069,0.152,0.981,0.0046,W
1.53,-0.0605,83.03,0.62,98.5,0.074,0.153,0.979,0.0061,W
1.54,-0.1035,33.81,4.27,97.9,0.076,0.147,0.982,0.0046,W
1.55,0.1289,-18.74,5.44,98.0,0.076,0.15,0.981,0.005,W
1.56,0.5256,-52.52,-12.0,98.2,0.08,0.156,0.981,0.0037,W
1.57,1.0156,55.92,1.73,97.8,0.083,0.15,0.988,0.0025,W
1.58,1.2619,-42.01,1.49,98.3,0.079,0.153,0.978,0.0067,W
1.59,1.0331,-1.55,-4.43,97.9,0.083,0.152,0.985,0.0004,W
1.6,0.5061,23.92,3.64,98.0,0.079,0.143,0.978,0.0086,W
1.61,0.0513,21.87,1.8,98.3,0.082,0.159,0.973,0.011,W
1.62,-0.2153,115.96,-0.15,98.1,0.081,0.147,0.986,0.0006,W
1.63,-0.2633,-98.1,4.7,98.0,0.079,0.158,0.979,0.0053,W
1.64,-0.2408,-70.89,-1.58,98.2,0.077,0.144,0.979,0.0071,W
1.65,-0.0953,-47.6,3.37,98.0,0.079,0.146,0.978,0.0078,W
1.66,-0.0426,43.71,-7.61,98.5,0.082,0.156,0.983,0.001,W
1.67,-0.0125,-74.89,3.03,98.0,0.089,0.143,0.981,0.0045,W
1.68,0.0213,15.85,-7.5,98.1,0.08,0.142,0.981,0.0055,W
1.69,0.0325,-25.21,-0.87,98.5,0.082,0.149,0.97,0.0148,W
1.7,0.0401,-68.02,-7.89,98.2,0.08,0.155,0.98,0.0042,W
1.71,0.0669,15.04,-6.25,98.1,0.077,0.145,0.986,0.0007,W
1.72,0.065,10.17,0.65,98.1,0.093,0.152,0.981,0.0025,W
1.73,0.0961,17.93,3.17,98.1,0.073,0.141,0.991,0.0032,W
1.74,0.161,25.99,0.87,98.1,0.081,0.147,0.983,0.0031,W
1.75,0.2141,52.16,-0.46,98.3,0.078,0.15,0.974,0.0113,W
1.76,0.2752,-13.48,3.4,98.2,0.083,0.153,0.979,0.0061,W
1.77,0.2892,47.37,-2.54,98.0,0.076,0.153,0.982,0.0036,W
1.78,0.3188,-30.94,6.54,98.3,0.079,0.156,0.973,0.0111,W
1.79,0.3328,-32.29,-9.41,98.0,0.084,0.147,0.977,0.0085,W
1.8,0.3207,-28.58,-14.67,98.0,0.094,0.149,0.979,0.0049,W
1.81,0.3378,67.77,-3.99,98.3,0.07,0.153,0.984,0.002,W
1.82,0.3028,-85.8,4.0,98.0,0.08,0.138,0.98,0.0077,W
1.83,0.2933,-85.1,4.54,98.1,0.082,0.15,0.975,0.0097,W
1.84,0.2549,-57.95,7.95,98.3,0.077,0.15,0.974,0.0113,W
1.85,0.174,-23.79,10.22,98.2,0.076,0.156,0.978,0.007,W
1.86,0.1239,14.18,-6.64,98.0,0.087,0.145,0.978,0.0071,W
1.87,0.0909,17.75,-2.65,98.3,0.081,0.149,0.974,0.011,W
1.88,0.0443,81.04,1.52,98.2,0.08,0.146,0.978,0.0075,W
1.89,0.0315,35.48,-5.4,98.2,0.086,0.156,0.973,0.0105,W
1.9,0.0566,-20.27,-8.01,98.4,0.08,0.149,0.987,0.0015,W
1.91,0.0163,-61.96,6.45,98.1,0.079,0.158,0.97,0.0143,W
1.92,-0.0101,14.39,-3.71,98.2,0.089,0.159,0.982,0.0015,W
1.93,-0.0013,-15.68,-3.76,98.4,0.076,0.157,0.982,0.0027,W
1.94,-0.0167,-7.82,-3.59,98.0,0.084,0.15,0.974,0.0107,W
1.95,-0.0151,19.82,-6.92,97.9,0.07,0.149,0.982,0.0043,W
1.96,0.0034,8.55,-0.32,98.2,0.082,0.146,0.985,0.0014,W
1.97,-0.011,2.81,-6.18,98.1,0.077,0.156,0.974,0.0101,W
1.98,-0.0063,30.23,1.15,98.2,0.08,0.151,0.985,0.0001,W
1.99,0.0042,-25.56,-8.29,98.2,0.081,0.147,0.981,0.0042,W
2.0,0.0073,-15.54,5.35,98.1,0.08,0.145,0.972,0.0136,W
2.01,0.0424,73.67,12.5,98.3,0.084,0.15,0.983,0.0024,W
2.02,0.075,-26.91,-2.04,98.2,0.078,0.147,0.98,0.0057,W
2.03,0.0826,-54.91,-1.34,98.0,0.082,0.152,0.981,0.0042,W
2.04,0.1293,-22.41,-1.73,98.3,0.084,0.143,0.978,0.0076,W
2.05,0.1402,-56.91,3.32,98.1,0.095,0.15,0.978,0.0063,W
2.06,0.1329,-47.43,1.26,98.2,0.079,0.147,0.981,0.0045,W
2.07,0.0833,54.67,-0.33,98.5,0.078,0.15,0.983,0.0022,W
2.08,0.0295,58.58,7.86,98.1,0.08,0.145,0.984,0.0021,W
2.09,-0.0153,-26.28,-2.93,98.2,0.072,0.152,0.974,0.0112,W
2.1,0.0115,-4.91,4.52,98.3,0.075,0.146,0.982,0.0049,W
2.11,-0.0094,-17.46,0.21,98.1,0.077,0.152,0.978,0.0076,W
2.12,-0.0106,-25.5,-3.51,98.1,0.081,0.144,0.982,0.004,W
2.13,-0.0482,5.02,1.44,98.0,0.083,0.154,0.979,0.0057,W
2.14,0.0059,-35.53,3.74,98.2,0.078,0.146,0.97,0.0156,W
2.15,-0.0668,-101.19,4.55,98.2,0.079,0.153,0.985,0.0,W
2.16,-0.1517,46.84,-4.92,98.1,0.09,0.149,0.985,0.0005,W
2.17,-0.0857,-26.54,-3.85,98.3,0.086,0.15,0.98,0.0049,W
2.18,0.28,27.37,-10.05,98.4,0.091,0.144,0.979,0.0068,W
2.19,0.768,19.53,-1.95,98.4,0.078,0.151,0.978,0.0073,W
2.2,1.1484,41.4,11.21,98.3,0.079,0.148,0.982,0.0043,W
2.21,1.1414,137.49,1.75,98.4,0.087,0.14,0.971,0.0151,W
2.22,0.6655,42.75,-2.02,97.9,0.084,0.148,0.98,0.0052,W
2.23,0.1744,89.3,-3.02,98.5,0.078,0.148,0.986,0.0,W
2.24,-0.1642,-12.46,-2.96,98.1,0.092,0.149,0.981,0.0037,W
2.25,-0.2963,-10.58,0.92,98.3,0.082,0.147,0.982,0.0036,W
2.26,-0.3166,-22.58,0.42,98.1,0.079,0.146,0.984,0.0021,W
2.27,-0.2061,50.98,4.68,98.4,0.084,0.147,0.978,0.0071,W
2.28,-0.0873,-48.78,-0.53,98.1,0.082,0.153,0.986,0.0014,W
2.29,-0.0389,-39.9,-2.19,98.1,0.076,0.147,0.987,0.0013,W
2.3,-0.0358,-3.09,5.39,97.9,0.089,0.149,0.984,0.0007,W
2.31,-0.0373,-11.07,-0.11,98.6,0.085,0.15,0.991,0.0057,W
2.32,-0.0071,-9.12,4.23,98.1,0.084,0.152,0.988,0.0034,W
2.33,0.0099,57.74,2.64,98.4,0.086,0.15,0.994,0.0085,W
2.34,0.0173,-23.76,-0.76,98.3,0.085,0.145,0.979,0.0065,W
2.35,0.0412,82.94,-1.9,98.3,0.087,0.148,0.988,0.0026,W
2.36,0.0565,51.32,-0.76,98.3,0.085,0.146,0.987,0.001,W
2.37,0.0955,-1.22,-3.49,98.3,0.085,0.14,0.984,0.0025,W
2.38,0.1299,-68.6,-4.77,98.4,0.079,0.147,0.992,0.0056,W
2.39,0.2107,36.79,-2.01,97.9,0.082,0.142,0.982,0.0046,W
2.4,0.2559,13.89,0.54,98.3,0.087,0.145,0.982,0.0033,W
2.41,0.2585,3.33,6.18,97.9,0.08,0.153,0.979,0.0064,W
2.42,0.3075,-76.07,-1.15,98.4,0.084,0.153,0.998,0.0126,W
2.43,0.2401,4.37,1.41,98.2,0.085,0.141,0.988,0.0013,W
2.44,0.3027,-2.56,-6.52,98.1,0.088,0.152,0.981,0.0033,W
2.45,0.2412,-67.62,-10.31,98.3,0.084,0.143,0.981,0.0051,W
2.46,0.2025,0.25,3.2,98.4,0.08,0.15,0.997,0.0111,W
2.47,0.1889,41.51,-3.38,98.2,0.08,0.134,0.991,0.0033,W
2.48,0.1012,27.45,8.68,98.4,0.096,0.143,0.988,0.0027,W
2.49,0.0796,-52.59,-7.44,98.1,0.086,0.139,0.992,0.0053,W
2.5,0.0287,-54.95,-7.16,98.4,0.087,0.133,0.993,0.006,W
2.51,0.0023,1.92,0.64,98.4,0.073,0.143,0.998,0.0111,W
2.52,-0.0522,-25.69,-3.95,98.3,0.089,0.142,0.992,0.0056,W
2.53,-0.0303,61.0,2.78,98.2,0.094,0.147,0.996,0.0116,W
2.54,-0.0422,114.66,-2.1,98.1,0.08,0.145,0.995,0.0083,W
2.55,-0.0495,-41.05,-7.8,98.1,0.085,0.136,1.01,0.0229,W
2.56,-0.0404,-38.9,7.53,98.0,0.094,0.133,0.996,0.0096,W
2.57,-0.0521,13.76,-5.13,98.4,0.095,0.135,0.995,0.0085,W
2.58,-0.0559,-49.71,-4.48,98.1,0.093,0.13,0.997,0.0097,W
2.59,-0.0504,80.18,2.0,98.2,0.095,0.136,1.002,0.0158,W
2.6,-0.0383,-99.21,8.39,98.2,0.097,0.128,1.0,0.0125,W
2.61,-0.0262,94.28,1.89,98.3,0.1,0.125,1.01,0.0222,W
2.62,0.0035,-12.48,-6.33,98.2,0.095,0.124,1.003,0.0149,W
2.63,-0.0372,-21.5,1.35,98.0,0.101,0.134,1.002,0.0162,W
2.64,0.0121,10.52,0.98,98.3,0.105,0.119,1.012,0.0243,W
2.65,0.0731,44.28,4.3,98.2,0.108,0.126,1.01,0.0238,W
2.66,0.069,19.11,-0.96,97.9,0.099,0.123,1.004,0.0162,W
2.67,0.0883,-32.86,-1.06,98.4,0.106,0.122,1.018,0.0305,W
2.68,0.1287,-76.56,-2.01,98.2,0.099,0.133,1.022,0.035,W
2.69,0.0639,-21.1,-3.49,98.0,0.104,0.124,1.021,0.0341,W
2.7,-0.0158,88.77,-1.47,98.2,0.11,0.12,1.022,0.0349,W
2.71,-0.0114,-21.84,1.68,98.1,0.111,0.127,1.026,0.04,W
2.72,-0.044,57.47,1.64,98.2,0.11,0.12,1.027,0.0399,W
2.73,-0.0615,112.34,-3.48,97.8,0.108,0.11,1.031,0.042,W
2.74,-0.0267,55.62,5.57,98.3,0.12,0.102,1.035,0.0468,W
2.75,-0.0283,-7.72,2.09,98.1,0.118,0.109,1.033,0.0458,W
2.76,-0.0322,17.12,-4.47,98.2,0.125,0.099,1.042,0.0541,W
2.77,-0.0776,113.52,-3.48,98.2,0.113,0.096,1.041,0.0514,W
2.78,-0.1679,-11.42,-0.93,97.9,0.129,0.102,1.041,0.0539,W
2.79,-0.1221,63.89,-4.74,98.2,0.112,0.099,1.053,0.0635,W
2.8,0.1271,-14.16,2.46,98.3,0.122,0.095,1.052,0.0634,W
2.81,0.5568,-14.61,4.4,98.2,0.12,0.085,1.06,0.07,W
2.82,1.0508,12.27,-2.67,98.0,0.125,0.092,1.055,0.0663,W
2.83,1.1376,22.24,-1.11,98.2,0.134,0.081,1.056,0.0675,W
2.84,0.8203,-19.65,1.19,98.6,0.137,0.078,1.066,0.0775,W
2.85,0.3078,58.63,-2.3,98.4,0.138,0.081,1.073,0.0851,W
2.86,-0.0802,39.23,-1.92,98.2,0.139,0.076,1.072,0.0835,W
2.87,-0.2854,-7.53,0.5,98.2,0.139,0.077,1.078,0.0898,W
2.88,-0.3279,18.25,5.71,98.0,0.145,0.077,1.092,0.1043,W
2.89,-0.2238,0.06,-1.81,98.2,0.154,0.062,1.088,0.1007,W
2.9,-0.1359,31.31,-7.81,98.3,0.153,0.061,1.094,0.1064,W
2.91,-0.0903,-56.04,1.25,98.3,0.157,0.053,1.098,0.1105,W
2.92,-0.0173,-23.13,-4.49,98.2,0.156,0.056,1.111,0.123,W
2.93,-0.0205,-61.88,-0.11,98.2,0.162,0.042,1.105,0.1175,W
2.94,-0.0274,103.64,3.21,98.4,0.158,0.041,1.119,0.131,W
2.95,-0.0326,9.05,1.66,98.2,0.168,0.039,1.122,0.1351,W
2.96,0.0237,-4.66,1.43,98.4,0.169,0.03,1.126,0.139,W
2.97,0.0225,28.48,-5.32,98.3,0.175,0.021,1.137,0.1509,W
2.98,0.0766,-65.99,5.56,98.1,0.174,0.031,1.142,0.1555,W
2.99,0.1311,-9.37,-4.84,98.2,0.182,0.014,1.147,0.162,W
3.0,0.1718,155.53,-1.15,98.3,0.191,0.02,1.161,0.1764,W
3.01,0.1817,0.27,-0.49,98.2,0.186,0.012,1.158,0.1725,W
3.02,0.2436,1.78,-0.15,98.0,0.195,0.001,1.172,0.1879,W
3.03,0.2888,-51.02,-2.14,98.4,0.191,0.001,1.175,0.1905,W
3.04,0.3195,58.91,-0.44,98.1,0.204,0.001,1.175,0.1924,W
3.05,0.308,4.0,2.96,98.3,0.204,-0.023,1.191,0.209,W
3.06,0.3141,-52.59,-6.39,98.3,0.211,-0.019,1.202,0.2205,W
3.07,0.2619,65.62,-2.47,98.1,0.221,-0.027,1.202,0.2229,W
3.08,0.2063,97.2,3.39,98.2,0.221,-0.027,1.213,0.2336,W
3.09,0.1939,27.16,-0.98,98.3,0.23,-0.04,1.217,0.2388,W
3.1,0.1753,97.61,5.65,98.1,0.223,-0.041,1.233,0.2532,W
3.11,0.0874,16.68,1.24,98.5,0.234,-0.049,1.239,0.2615,W
3.12,0.0528,72.89,2.46,98.4,0.245,-0.047,1.248,0.2721,W
3.13,0.009,-14.7,0.62,98.3,0.249,-0.057,1.254,0.2794,W
3.14,0.013,-41.83,8.56,98.3,0.249,-0.063,1.251,0.2773,W
3.15,-0.0239,-13.33,-2.06,98.4,0.256,-0.069,1.262,0.2898,W
3.16,0.0265,59.8,-1.4,98.3,0.263,-0.083,1.281,0.3104,W
3.17,-0.023,-68.9,3.67,98.3,0.263,-0.083,1.284,0.3129,W
3.18,-0.0096,-68.45,-4.99,98.5,0.277,-0.085,1.283,0.3157,W
3.19,-0.055,-45.96,0.07,98.5,0.271,-0.095,1.297,0.3288,W
3.2,-0.0395,72.0,-3.99,98.3,0.277,-0.101,1.305,0.3375,W
3.21,-0.0371,-1.34,6.7,98.4,0.279,-0.101,1.304,0.3376,W
3.22,-0.0327,25.75,4.79,98.4,0.3,-0.123,1.323,0.3617,W
3.23,-0.0554,-25.9,-2.1,98.1,0.299,-0.127,1.323,0.3621,W
3.24,-0.0186,-15.33,3.7,98.0,0.296,-0.127,1.327,0.3659,W
3.25,0.0124,95.96,3.04,98.3,0.297,-0.131,1.339,0.3774,W
3.26,0.0632,-41.44,-2.93,98.5,0.312,-0.137,1.357,0.3992,W
3.27,0.0949,35.27,-4.81,98.2,0.314,-0.141,1.357,0.4002,W
3.28,0.0691,-19.33,0.63,98.3,0.315,-0.156,1.372,0.4168,W
3.29,0.1348,38.95,-3.5,98.2,0.329,-0.164,1.371,0.4198,W
3.3,0.1388,-23.61,6.86,98.4,0.325,-0.171,1.385,0.4332,W
3.31,0.0704,-3.94,-7.04,97.8,0.319,-0.171,1.39,0.4366,W
3.32,0.0798,-4.67,4.14,98.2,0.342,-0.177,1.403,0.4554,W
3.33,0.0497,10.24,5.34,98.0,0.342,-0.172,1.397,0.4482,W
3.34,0.0518,-10.67,2.4,98.1,0.337,-0.173,1.419,0.4687,W
3.35,-0.0166,-96.96,3.7,98.0,0.347,-0.191,1.415,0.4697,W
3.36,-0.0112,1.69,-2.66,98.2,0.352,-0.184,1.425,0.479,W
3.37,-0.036,-83.7,3.35,98.3,0.354,-0.197,1.427,0.4832,W
3.38,-0.024,11.86,0.62,98.2,0.362,-0.199,1.423,0.4818,W
3.39,-0.0172,57.0,5.48,98.3,0.367,-0.212,1.443,0.5041,W
3.4,-0.042,-20.6,-11.1,98.5,0.364,-0.221,1.445,0.5067,W
3.41,-0.1409,-127.43,4.4,98.1,0.367,-0.216,1.452,0.5135,W
3.42,-0.015,-106.02,-7.86,98.1,0.374,-0.222,1.451,0.5143,W
3.43,0.358,17.56,-0.77,98.2,0.366,-0.216,1.462,0.5227,W
3.44,0.8344,29.02,0.47,98.3,0.374,-0.222,1.464,0.5277,W
3.45,1.2299,0.01,1.69,98.5,0.382,-0.229,1.475,0.5412,W
3.46,1.0941,-11.35,0.49,98.2,0.39,-0.238,1.477,0.5457,W
3.47,0.5982,-33.45,-0.87,98.2,0.382,-0.237,1.47,0.5371,W
3.48,0.1472,18.49,-9.58,98.2,0.397,-0.234,1.475,0.5458,W
3.49,-0.1377,57.46,-4.78,98.3,0.393,-0.236,1.482,0.551,W
3.5,-0.2843,-13.45,-6.98,98.3,0.388,-0.24,1.488,0.5566,W
3.51,-0.3013,-35.62,-0.25,98.3,0.398,-0.243,1.476,0.5478,W
3.52,-0.1728,-39.52,-0.8,98.4,0.391,-0.248,1.484,0.5545,W
3.53,-0.0239,-98.86,-8.98,98.5,0.385,-0.253,1.488,0.5577,W
3.54,-0.0227,101.84,-6.84,98.3,0.38,-0.245,1.494,0.5613,W
3.55,0.0015,-17.6,4.9,98.4,0.388,-0.244,1.495,0.5636,W
3.56,0.0126,-33.58,-3.7,98.3,0.396,-0.251,1.481,0.5538,W
3.57,-0.0031,-59.17,3.48,98.1,0.39,-0.252,1.483,0.5541,W
3.58,0.0365,-31.32,-7.26,98.4,0.399,-0.25,1.48,0.553,W
3.59,0.0743,-27.28,-3.58,98.3,0.391,-0.238,1.482,0.5509,W
3.6,0.0489,2.43,8.95,98.1,0.389,-0.25,1.487,0.5577,W
3.61,0.118,-31.09,2.78,98.2,0.394,-0.241,1.491,0.5612,W
3.62,0.1774,-88.8,-7.3,98.3,0.384,-0.242,1.485,0.5528,W
3.63,0.2515,88.54,-1.18,98.3,0.381,-0.243,1.475,0.5423,W
3.64,0.2748,6.37,3.36,98.2,0.383,-0.237,1.474,0.5415,W
3.65,0.3225,12.04,8.14,98.3,0.38,-0.23,1.463,0.5293,W
3.66,0.3313,87.13,-0.05,98.1,0.38,-0.23,1.462,0.5279,W
3.67,0.3569,66.7,-0.92,98.0,0.374,-0.23,1.462,0.5265,W
3.68,0.3622,21.19,-9.71,98.1,0.369,-0.214,1.453,0.5144,W
3.69,0.3174,-1.77,5.32,98.0,0.373,-0.219,1.452,0.5149,W
3.7,0.3085,-6.09,-0.9,98.3,0.362,-0.211,1.45,0.5092,W
3.71,0.2466,62.2,5.56,98.1,0.361,-0.208,1.435,0.4943,W
3.72,0.2332,-53.85,-7.58,98.4,0.359,-0.208,1.43,0.4887,W
3.73,0.176,-33.09,-7.37,98.2,0.366,-0.197,1.429,0.4885,W
3.74,0.0983,44.73,4.43,98.4,0.349,-0.191,1.418,0.4732,W
3.75,0.0974,62.7,1.45,98.4,0.348,-0.187,1.412,0.466,W
3.76,0.0841,38.83,3.06,98.2,0.338,-0.181,1.4,0.4518,W
3.77,0.0296,-28.65,1.45,98.5,0.338,-0.172,1.393,0.444,W
3.78,0.033,42.8,-2.54,98.3,0.325,-0.168,1.383,0.4304,W
3.79,0.0198,10.68,3.74,98.7,0.325,-0.169,1.377,0.4249,W
3.8,0.0323,-28.59,2.08,98.3,0.32,-0.162,1.378,0.4237,W
3.81,-0.0019,-28.72,-3.33,98.3,0.315,-0.149,1.352,0.3959,W
3.82,-0.0089,23.11,6.3,98.2,0.31,-0.143,1.337,0.3799,W
3.83,0.0075,-2.97,-5.23,98.3,0.314,-0.142,1.334,0.3778,W
3.84,0.0097,-22.67,-3.18,98.4,0.304,-0.128,1.325,0.3658,W
3.85,0.0217,-37.76,-4.1,98.2,0.29,-0.114,1.308,0.3445,W
3.86,0.0034,-18.44,-1.87,98.2,0.285,-0.101,1.299,0.3335,W
3.87,0.0224,-2.21,-3.47,98.2,0.28,-0.098,1.293,0.3265,W
3.88,0.0686,-25.72,-6.61,98.0,0.27,-0.098,1.282,0.3134,W
3.89,0.125,19.46,10.21,98.4,0.263,-0.087,1.28,0.3093,W
3.9,0.1224,42.97,-5.54,98.2,0.251,-0.073,1.261,0.2874,W
3.91,0.1659,-23.38,8.38,98.3,0.242,-0.063,1.252,0.2769,W
3.92,0.171,-16.63,-5.34,98.4,0.24,-0.062,1.244,0.268,W
3.93,0.162,-73.52,-5.93,98.5,0.242,-0.05,1.23,0.2543,W
3.94,0.1688,0.14,-3.52,98.1,0.226,-0.044,1.218,0.2396,W
3.95,0.1085,39.44,-4.29,98.2,0.227,-0.029,1.201,0.2224,W
3.96,0.0912,-38.71,-7.77,98.2,0.213,-0.03,1.191,0.2104,W
3.97,0.0655,-91.68,-0.9,98.4,0.216,-0.015,1.185,0.2045,W
3.98,0.0487,97.98,5.31,98.3,0.204,-0.005,1.174,0.1912,W
3.99,0.0441,59.69,4.18,98.5,0.197,0.01,1.154,0.171,W
4.0,0.0496,-39.8,0.79,98.5,0.187,0.013,1.15,0.1649,W
4.01,0.0362,65.19,3.78,98.2,0.188,0.015,1.127,0.1428,W
4.02,-0.0065,-0.8,-0.47,98.2,0.179,0.019,1.124,0.1384,W
4.03,-0.0422,-26.84,1.69,98.1,0.175,0.031,1.115,0.1295,W
4.04,-0.0913,9.48,-1.58,98.2,0.157,0.049,1.096,0.1082,W
4.05,0.0607,-30.93,1.69,98.2,0.148,0.05,1.097,0.1086,W
4.06,0.4481,111.91,-8.2,98.2,0.147,0.058,1.077,0.0888,W
4.07,0.94,2.93,5.61,98.3,0.138,0.066,1.071,0.0814,W
4.08,1.2983,-19.78,3.8,98.4,0.133,0.078,1.054,0.0656,W
4.09,1.1122,26.18,-4.47,98.3,0.129,0.087,1.046,0.0575,W
4.1,0.6501,-104.55,9.64,98.2,0.126,0.098,1.033,0.045,W
4.11,0.1682,32.97,0.52,98.2,0.121,0.105,1.018,0.0304,W
4.12,-0.0959,0.69,-4.18,98.3,0.107,0.116,1.013,0.025,W
4.13,-0.2312,-2.81,7.1,98.3,0.108,0.128,1.016,0.0301,W
4.14,-0.2233,18.12,11.37,98.5,0.103,0.125,0.985,0.0015,W
4.15,-0.133,54.72,-6.36,98.1,0.087,0.146,1.0,0.0142,W
4.16,0.0055,-13.17,-8.47,98.5,0.076,0.136,0.971,0.0162,W
4.17,0.0448,98.76,6.84,98.1,0.087,0.153,0.968,0.0159,W
4.18,0.0532,-30.4,-0.31,98.5,0.075,0.158,0.956,0.0279,W
4.19,0.0375,-37.3,-3.85,98.4,0.072,0.165,0.945,0.0376,W
4.2,0.0736,-52.69,0.71,98.3,0.059,0.167,0.937,0.0468,W
4.21,0.0695,80.83,1.62,98.5,0.059,0.18,0.932,0.0489,W
4.22,0.115,-4.91,-2.56,98.1,0.061,0.189,0.925,0.0538,W
4.23,0.1354,0.41,6.84,98.3,0.051,0.192,0.914,0.0642,W
4.24,0.1646,76.08,2.3,98.0,0.042,0.201,0.911,0.0657,W
4.25,0.205,-98.29,9.4,98.1,0.051,0.207,0.907,0.0684,W
4.26,0.2597,114.59,-9.04,98.1,0.042,0.198,0.898,0.0792,W
4.27,0.318,-0.12,0.87,98.3,0.033,0.207,0.893,0.0828,W
4.28,0.3588,12.26,-9.55,98.3,0.031,0.208,0.887,0.0888,W
4.29,0.369,8.33,-1.93,98.3,0.025,0.223,0.877,0.0944,W
4.3,0.4023,-61.56,-11.24,98.5,0.02,0.232,0.868,0.1017,W
4.31,0.393,-70.37,-1.32,98.6,0.011,0.231,0.868,0.1019,W
4.32,0.3857,-26.08,8.62,98.4,0.022,0.227,0.859,0.111,W
4.33,0.3346,84.25,0.85,98.6,0.012,0.232,0.855,0.1142,W
4.34,0.2881,-10.39,-6.93,98.1,0.004,0.235,0.855,0.1137,W
4.35,0.2277,25.03,2.12,98.2,-0.003,0.242,0.847,0.1194,W
4.36,0.1866,-119.29,6.02,98.3,-0.003,0.25,0.84,0.1238,W
4.37,0.1616,8.97,2.97,98.3,0.0,0.247,0.838,0.1259,W
4.38,0.0954,-8.96,0.59,98.4,-0.003,0.254,0.841,0.1218,W
4.39,0.1019,79.29,7.29,98.3,-0.011,0.248,0.842,0.1223,W
4.4,0.0934,-3.07,-2.12,98.3,-0.01,0.244,0.826,0.1384,W
4.41,0.0698,55.14,2.85,98.3,-0.002,0.266,0.822,0.1356,W
4.42,0.054,-91.89,0.48,98.4,-0.011,0.259,0.824,0.1364,W
4.43,0.0652,49.7,-1.58,98.4,-0.011,0.268,0.821,0.1365,W
4.44,0.0303,42.16,10.28,97.9,-0.012,0.266,0.805,0.1526,W
4.45,0.066,-18.2,1.41,98.3,-0.016,0.263,0.821,0.1374,W
4.46,0.0537,75.03,5.16,98.2,-0.016,0.263,0.811,0.1472,W
4.47,0.0531,30.14,0.97,98.3,-0.012,0.264,0.818,0.1407,W
4.48,0.0608,3.2,-0.6,98.3,-0.008,0.272,0.823,0.133,W
4.49,0.0495,-105.18,4.69,98.4,-0.005,0.268,0.812,0.145,W
4.5,0.0827,-13.27,14.98,98.2,-0.011,0.268,0.824,0.1336,W
4.51,0.1174,17.81,11.32,98.3,-0.012,0.266,0.814,0.1433,W
4.52,0.1391,-61.94,10.31,98.1,-0.011,0.262,0.817,0.1422,W
4.53,0.1632,37.57,6.95,98.2,-0.004,0.264,0.815,0.1432,W
4.54,0.2359,-0.25,17.21,98.4,-0.012,0.269,0.818,0.1384,W
4.55,0.1864,-54.78,8.86,98.3,-0.009,0.272,0.815,0.1405,W
4.56,0.1785,-18.92,12.99,98.0,-0.009,0.265,0.819,0.1396,W
4.57,0.132,29.46,12.65,98.5,-0.017,0.262,0.816,0.143,W
4.58,0.1052,42.01,20.66,98.4,-0.025,0.265,0.821,0.1368,W
4.59,0.0787,-45.07,16.48,98.6,-0.012,0.266,0.813,0.1442,W
4.6,0.0437,-46.44,25.23,98.5,-0.01,0.263,0.818,0.1405,W
4.61,0.0785,26.91,30.16,98.0,-0.007,0.26,0.829,0.1314,W
4.62,0.0576,-37.24,31.57,98.5,-0.003,0.264,0.825,0.1337,W
4.63,0.0387,59.29,18.3,98.3,-0.001,0.258,0.825,0.1355,W
4.64,0.0759,5.7,39.15,98.3,-0.004,0.251,0.824,0.1383,W
4.65,0.0289,-59.14,32.35,98.5,0.005,0.25,0.832,0.1307,W
4.66,-0.0949,-32.38,38.79,98.4,-0.009,0.253,0.84,0.1226,W
4.67,0.0485,9.5,36.32,98.5,-0.015,0.251,0.833,0.1296,W
4.68,0.3193,-86.57,44.19,98.6,0.007,0.251,0.849,0.1146,W
4.69,0.8582,28.49,38.66,98.1,0.002,0.256,0.85,0.1124,W
4.7,1.2549,-20.3,42.25,98.1,0.007,0.25,0.845,0.1186,W
4.71,1.2201,-5.82,56.38,98.5,0.009,0.238,0.849,0.1184,W
4.72,0.7735,-64.95,57.67,98.4,0.009,0.241,0.848,0.1183,W
4.73,0.2644,-69.8,58.21,98.2,-0.0,0.25,0.854,0.1099,W
4.74,-0.0752,34.4,65.59,98.5,0.01,0.248,0.853,0.1119,W
4.75,-0.2251,-53.12,67.6,98.2,0.027,0.232,0.867,0.1024,W
4.76,-0.246,-56.44,63.26,98.3,0.011,0.237,0.851,0.1162,W
4.77,-0.1016,30.0,73.48,98.2,0.015,0.232,0.864,0.1055,W
4.78,0.002,-134.72,78.63,98.1,0.015,0.235,0.877,0.0923,W
4.79,0.0246,12.68,76.13,98.6,0.017,0.229,0.874,0.0961,W
4.8,0.0495,-19.61,74.2,98.3,0.012,0.229,0.881,0.0898,W
4.81,0.0816,19.33,78.4,98.1,0.018,0.222,0.876,0.0964,W
4.82,0.0716,36.52,85.92,98.3,0.015,0.218,0.875,0.0979,W
4.83,0.0698,20.08,86.67,98.3,0.034,0.22,0.887,0.0857,W
4.84,0.1196,-53.04,77.83,98.2,0.021,0.22,0.877,0.0959,W
4.85,0.1262,-37.93,83.3,98.4,0.026,0.221,0.893,0.0794,W
4.86,0.1217,-38.59,74.5,98.7,0.037,0.211,0.887,0.0871,W
4.87,0.2246,32.77,81.86,98.1,0.033,0.208,0.898,0.0773,W
4.88,0.2534,1.12,74.49,98.1,0.044,0.206,0.897,0.0782,W
4.89,0.3081,102.53,71.11,98.4,0.033,0.206,0.9,0.0756,W
4.9,0.3254,15.45,71.68,98.3,0.041,0.212,0.902,0.0725,W
4.91,0.3679,-38.3,71.45,98.5,0.036,0.204,0.905,0.0716,W
4.92,0.3559,49.12,67.78,98.2,0.032,0.195,0.912,0.0667,W
4.93,0.4069,20.33,70.54,98.5,0.049,0.195,0.9,0.0779,W
4.94,0.3892,-25.99,56.7,98.4,0.044,0.194,0.901,0.0772,W
4.95,0.3513,-88.25,60.74,98.1,0.052,0.194,0.91,0.0684,W
4.96,0.2828,24.53,64.53,98.5,0.049,0.189,0.912,0.0675,W
4.97,0.2624,75.9,45.37,98.3,0.044,0.197,0.92,0.0586,W
4.98,0.2043,55.01,48.7,98.5,0.048,0.19,0.917,0.0627,W
4.99,0.1882,0.46,48.27,98.3,0.045,0.188,0.931,0.0492,W
5.0,0.1193,40.33,36.95,98.1,0.052,0.182,0.919,0.0614,W
5.01,0.0785,-4.51,42.49,98.3,0.051,0.189,0.932,0.0477,W
5.02,0.0765,-2.94,37.8,98.4,0.054,0.193,0.928,0.051,W
5.03,0.0926,61.04,42.02,98.2,0.043,0.175,0.935,0.0477,W
5.04,0.0363,37.16,40.88,98.3,0.05,0.184,0.94,0.041,W
5.05,0.0076,65.22,24.86,98.2,0.055,0.178,0.931,0.0509,W
5.06,0.0231,42.51,28.57,98.0,0.061,0.182,0.948,0.0326,W
5.07,0.039,-16.85,27.19,98.5,0.05,0.177,0.941,0.0407,W
5.08,0.0316,2.74,18.15,98.6,0.069,0.179,0.951,0.03,W
5.09,0.031,-8.26,28.51,98.3,0.058,0.177,0.937,0.0449,W
5.1,0.0289,-14.98,11.77,98.2,0.053,0.173,0.943,0.0399,W
5.11,0.0127,-11.85,23.68,98.4,0.054,0.173,0.952,0.0311,W
5.12,0.0131,-54.35,15.99,98.2,0.059,0.171,0.946,0.0367,W
5.13,-0.0004,4.22,15.75,98.2,0.065,0.176,0.957,0.0248,W
5.14,0.036,24.71,9.24,98.3,0.069,0.173,0.953,0.0288,W
5.15,0.1092,-36.42,4.26,98.3,0.064,0.168,0.952,0.0316,W
5.16,0.1671,-7.39,11.72,98.5,0.064,0.163,0.949,0.035,W
5.17,0.138,43.88,8.21,98.2,0.075,0.165,0.957,0.0262,W
5.18,0.1621,-88.78,3.76,98.5,0.067,0.17,0.954,0.0285,W
5.19,0.1473,-0.68,-3.29,98.4,0.069,0.164,0.95,0.0336,W
5.2,0.1092,8.82,-1.89,98.5,0.071,0.152,0.961,0.0245,W
5.21,0.0708,-23.26,3.69,98.1,0.069,0.159,0.965,0.0197,W
5.22,0.0336,-65.07,8.13,98.3,0.075,0.17,0.957,0.0252,W
5.23,0.0384,-27.35,3.0,98.4,0.07,0.161,0.976,0.008,W
5.24,0.0014,21.35,2.27,98.3,0.065,0.159,0.961,0.0239,W
5.25,0.0155,-44.79,9.11,98.2,0.075,0.165,0.969,0.0143,W
5.26,-0.0141,-49.05,9.07,98.6,0.076,0.156,0.972,0.0127,W
5.27,0.0026,-80.35,3.8,98.2,0.074,0.157,0.958,0.0266,W
5.28,-0.0278,54.59,-3.12,98.5,0.074,0.166,0.965,0.0181,W
5.29,-0.1143,-45.86,-7.54,98.5,0.077,0.155,0.974,0.011,W
5.3,-0.0068,41.68,4.28,98.3,0.073,0.157,0.973,0.0117,W
5.31,0.2839,-104.12,8.63,98.3,0.067,0.158,0.966,0.0191,W
5.32,0.775,17.95,-5.81,98.3,0.065,0.163,0.967,0.0177,W
5.33,1.215,72.32,-0.4,98.4,0.08,0.155,0.977,0.008,W
5.34,1.1694,22.59,8.75,98.3,0.078,0.163,0.978,0.0055,W
5.35,0.7262,-40.72,0.35,98.4,0.08,0.153,0.97,0.0151,W
5.36,0.1703,12.27,5.51,98.3,0.075,0.16,0.971,0.0129,W
5.37,-0.1019,-86.67,5.99,98.5,0.07,0.154,0.963,0.022,W
5.38,-0.2685,-5.49,3.56,98.7,0.077,0.153,0.968,0.0172,W
5.39,-0.2597,7.83,-0.24,98.4,0.075,0.162,0.975,0.0088,W
5.4,-0.1851,28.59,-7.27,98.3,0.072,0.15,0.982,0.0044,W
5.41,-0.0773,-12.58,-6.52,98.4,0.075,0.152,0.971,0.0146,W
5.42,-0.02,16.38,11.03,98.7,0.07,0.161,0.969,0.0158,W
5.43,-0.0089,26.0,-1.2,98.4,0.072,0.149,0.976,0.0106,W
5.44,-0.0051,60.96,3.32,98.3,0.075,0.144,0.969,0.0172,W
5.45,0.0185,25.71,-6.6,98.3,0.086,0.147,0.985,0.0007,W
5.46,0.0463,37.41,-1.25,98.3,0.073,0.149,0.981,0.005,W
5.47,0.0417,-96.2,6.86,98.3,0.08,0.15,0.982,0.0029,W
5.48,0.0761,-28.08,-1.96,98.5,0.084,0.154,0.982,0.0021,W
5.49,0.1108,61.19,3.3,98.4,0.068,0.152,0.969,0.017,W
5.5,0.1301,5.14,-1.32,98.3,0.08,0.153,0.974,0.0112,W
5.51,0.2188,-25.27,2.44,98.7,0.078,0.15,0.978,0.0074,W
5.52,0.2646,-9.37,9.25,98.1,0.078,0.15,0.98,0.006,W
5.53,0.2913,23.55,6.17,98.4,0.078,0.161,0.983,0.0006,W
5.54,0.3538,43.49,1.25,98.1,0.082,0.15,0.989,0.0033,W
5.55,0.3189,-37.98,3.65,98.4,0.076,0.145,0.979,0.0078,W
5.56,0.3697,13.84,-1.34,98.6,0.08,0.151,0.979,0.0061,W
5.57,0.3113,-6.99,7.8,98.5,0.078,0.153,0.974,0.0114,W
5.58,0.277,-58.6,6.3,98.4,0.083,0.145,0.978,0.0081,W
5.59,0.2074,66.32,3.72,97.9,0.073,0.143,0.972,0.0145,W
5.6,0.1607,-102.46,-4.52,98.3,0.075,0.149,0.987,0.0009,W
5.61,0.1732,5.41,-3.0,98.6,0.077,0.148,0.983,0.0031,W
5.62,0.0813,-106.19,-9.27,98.3,0.079,0.147,0.98,0.0062,W
5.63,0.0695,76.45,-3.03,98.2,0.076,0.155,0.987,0.0017,W
5.64,0.0225,14.26,1.56,98.6,0.08,0.15,0.982,0.003,W
5.65,-0.0235,94.09,-2.05,98.3,0.078,0.153,0.981,0.0036,W
5.66,-0.0065,-34.83,-0.19,98.4,0.08,0.149,0.977,0.0089,W
5.67,0.0134,-39.68,-4.09,98.4,0.076,0.162,0.972,0.0119,W
5.68,-0.0214,-17.37,-2.28,98.4,0.072,0.15,0.981,0.0045,W
5.69,0.0008,-15.19,2.25,98.5,0.071,0.154,0.986,0.0008,W
5.7,-0.0441,13.24,5.75,98.3,0.077,0.159,0.98,0.0039,W
5.71,-0.0231,70.0,0.97,98.4,0.082,0.158,0.974,0.0097,W
5.72,-0.0205,-2.0,-3.07,98.5,0.077,0.154,0.971,0.0143,W
5.73,-0.0436,-73.72,1.39,98.2,0.068,0.152,0.975,0.0109,W
5.74,-0.0239,-59.72,0.59,98.4,0.079,0.154,0.987,0.0026,W
5.75,-0.0259,47.3,6.57,98.1,0.075,0.144,0.978,0.0086,W
5.76,0.013,49.04,1.51,98.2,0.074,0.149,0.972,0.014,W
5.77,0.013,100.37,7.4,98.3,0.083,0.148,0.983,0.0026,W
5.78,0.0777,19.66,-4.93,98.3,0.075,0.145,0.984,0.0027,W
5.79,0.095,118.93,6.66,98.4,0.083,0.155,0.982,0.0024,W
5.8,0.1081,-12.55,-8.44,98.3,0.088,0.142,0.986,0.0001,W
5.81,0.1165,-29.78,-3.75,98.1,0.078,0.145,0.983,0.0032,W
5.82,0.1083,34.61,-0.56,98.3,0.076,0.146,0.985,0.0011,W
5.83,0.0568,56.28,4.0,98.2,0.079,0.154,0.979,0.0053,W
5.84,-0.0099,42.2,-2.75,98.4,0.085,0.146,0.982,0.0035,W
5.85,-0.0068,-125.64,0.09,98.3,0.078,0.143,0.984,0.0027,W
5.86,-0.0309,-13.55,1.19,98.3,0.073,0.151,0.982,0.0041,W
5.87,-0.0671,-9.35,1.19,98.1,0.08,0.141,0.97,0.0168,W
5.88,-0.0413,20.0,4.19,98.2,0.083,0.151,0.976,0.009,W
5.89,-0.0218,-5.87,-3.44,98.3,0.085,0.156,0.979,0.0046,W
5.9,-0.0426,-29.52,3.8,98.3,0.084,0.151,0.983,0.002,W
5.91,-0.1027,-20.65,-8.5,98.1,0.081,0.144,0.975,0.0114,W
5.92,-0.1761,-37.28,-3.22,98.2,0.079,0.153,0.978,0.0073,W
5.93,-0.0657,100.7,4.67,98.2,0.086,0.159,0.985,0.0017,W
5.94,0.3663,43.82,-9.44,98.4,0.076,0.149,0.967,0.0191,W
5.95,0.8849,27.91,5.06,98.6,0.088,0.152,0.985,0.0004,W
5.96,1.2193,68.9,4.45,98.5,0.077,0.146,0.984,0.0021,W
5.97,1.021,-41.61,2.34,98.4,0.081,0.15,0.979,0.0066,W
5.98,0.541,76.6,-4.67,98.0,0.082,0.146,0.972,0.014,W
5.99,0.0704,19.54,-3.72,98.2,0.082,0.152,0.975,0.0102,W
6.0,-0.2218,1.82,-2.71,98.5,0.081,0.144,0.98,0.0063,W
6.01,-0.3142,-26.02,1.74,98.3,0.079,0.152,0.971,0.0141,W
6.02,-0.3026,-17.75,4.11,98.1,0.084,0.157,0.99,0.0063,W
6.03,-0.2155,-11.01,-0.1,98.3,0.074,0.144,0.983,0.0041,W
6.04,-0.0783,1.96,-2.98,98.1,0.08,0.147,0.981,0.0052,W
6.05,-0.0653,-6.76,3.6,98.1,0.081,0.146,0.991,0.0052,W
6.06,-0.0256,4.43,2.65,98.4,0.086,0.143,0.989,0.0028,W
6.07,-0.0318,-64.58,-1.49,98.4,0.083,0.149,0.985,0.0001,W
6.08,-0.012,-105.35,-6.89,98.3,0.08,0.15,0.979,0.0068,W
6.09,-0.0075,-10.04,-3.57,98.0,0.088,0.152,0.986,0.002,W
6.1,-0.0011,-11.75,-3.57,98.4,0.083,0.143,0.98,0.0067,W
6.11,0.0479,-29.56,-4.81,98.2,0.089,0.15,0.982,0.0029,W
6.12,0.0633,-1.62,2.8,98.2,0.082,0.143,0.979,0.0077,W
6.13,0.1229,-38.73,1.26,98.2,0.076,0.16,0.987,0.0029,W
6.14,0.1706,-22.6,6.84,98.1,0.082,0.161,0.982,0.0016,W
6.15,0.2248,-4.34,-5.62,98.1,0.087,0.144,0.976,0.0097,W
6.16,0.2544,-11.66,1.09,98.2,0.079,0.153,0.981,0.0036,W
6.17,0.277,6.57,3.66,98.0,0.077,0.156,0.979,0.0055,W
6.18,0.2707,31.98,-2.35,98.2,0.077,0.141,0.978,0.0087,W
6.19,0.3327,-26.18,5.82,98.3,0.079,0.151,0.976,0.0088,W
6.2,0.2583,-104.81,-2.78,98.2,0.084,0.148,0.983,0.002,W
6.21,0.218,8.29,-3.08,98.3,0.08,0.152,0.99,0.005,W
6.22,0.2014,28.31,3.1,98.1,0.084,0.155,0.977,0.0074,W
6.23,0.1823,-5.79,-0.45,98.4,0.079,0.153,0.98,0.0049,W
6.24,0.1027,64.58,-3.66,98.1,0.086,0.149,0.984,0.001,W
6.25,0.0435,-52.07,-4.59,98.2,0.073,0.149,0.984,0.0026,W
6.26,0.0101,-17.75,-1.94,98.2,0.087,0.15,0.982,0.0027,W
6.27,0.0422,-62.47,0.49,98.7,0.083,0.153,0.967,0.0175,W
6.28,-0.0381,-76.02,-1.78,98.2,0.08,0.152,0.984,0.0014,W
6.29,-0.0488,-50.71,-4.46,98.2,0.079,0.157,0.972,0.0118,W
6.3,-0.0233,-40.2,0.6,98.3,0.076,0.147,0.971,0.0155,W
6.31,-0.0625,36.89,5.73,98.2,0.083,0.147,0.969,0.016,W
6.32,-0.0757,79.97,9.91,98.5,0.078,0.148,0.98,0.0059,W
6.33,-0.0401,56.13,-0.72,98.2,0.074,0.151,0.985,0.0005,W
6.34,-0.0617,53.84,12.19,98.3,0.08,0.151,0.972,0.013,W
6.35,-0.0245,25.7,13.41,98.3,0.077,0.154,0.979,0.0055,W
6.36,-0.0351,-41.48,9.06,98.1,0.079,0.153,0.985,0.0005,W
6.37,-0.0033,17.63,3.84,98.4,0.076,0.154,0.983,0.0026,W
6.38,0.0006,1.47,12.71,98.5,0.077,0.142,0.981,0.0055,W
6.39,0.0589,20.75,11.65,98.3,0.074,0.148,0.977,0.0093,W
6.4,0.0403,-34.56,30.93,98.2,0.076,0.15,0.982,0.0039,W
6.41,0.0802,65.88,16.47,98.2,0.083,0.157,0.972,0.0116,W
6.42,0.0944,10.0,15.46,98.6,0.07,0.154,0.979,0.0061,W
6.43,0.0857,-18.8,21.22,98.1,0.081,0.153,0.982,0.003,W
6.44,0.0707,64.52,19.51,98.1,0.078,0.148,0.981,0.005,W
6.45,0.0424,-11.32,26.85,98.3,0.079,0.159,0.979,0.0049,W
6.46,-0.0148,2.28,27.75,98.2,0.083,0.155,0.972,0.0125,W
6.47,-0.0313,-7.95,30.98,98.6,0.08,0.15,0.977,0.0086,W
6.48,0.0099,-9.2,42.1,98.3,0.082,0.156,0.973,0.0111,W
6.49,-0.0436,24.06,43.39,98.5,0.079,0.152,0.974,0.0109,W
6.5,-0.0346,-9.88,36.14,98.4,0.077,0.147,0.975,0.011,W
6.51,-0.0172,-37.07,38.88,98.1,0.085,0.15,0.986,0.0012,W
6.52,-0.0584,44.27,52.82,98.4,0.064,0.149,0.974,0.0125,W
6.53,-0.0681,37.38,48.53,98.4,0.08,0.146,0.977,0.0086,W
6.54,-0.1621,68.48,54.49,98.4,0.072,0.153,0.976,0.0093,W
6.55,-0.0423,-28.64,65.25,98.3,0.081,0.152,0.976,0.0087,W
6.56,0.3178,-36.84,54.88,98.2,0.076,0.158,0.976,0.008,W
6.57,0.8051,-75.82,66.51,98.5,0.079,0.152,0.983,0.0017,W
6.58,1.1987,-34.62,65.83,98.4,0.084,0.152,0.976,0.0086,W
6.59,1.0695,-65.21,68.57,98.5,0.078,0.151,0.99,0.0048,W
6.6,0.5635,-145.06,66.45,98.2,0.089,0.139,0.979,0.0071,W
6.61,0.0904,49.83,67.38,98.1,0.079,0.149,0.976,0.009,W
6.62,-0.1834,-18.68,77.16,98.3,0.081,0.15,0.994,0.0088,W
6.63,-0.3332,-30.43,78.24,98.1,0.088,0.152,0.978,0.006,W
6.64,-0.3303,-4.38,79.74,98.4,0.084,0.153,0.986,0.0015,W
6.65,-0.1678,18.96,76.12,98.5,0.083,0.148,0.98,0.0052,W
6.66,-0.0686,-30.31,76.59,98.2,0.076,0.149,0.976,0.0102,W
6.67,-0.0958,33.69,71.83,98.2,0.082,0.145,0.983,0.0036,W
6.68,-0.0013,31.22,76.39,98.1,0.074,0.147,0.978,0.0086,W
6.69,-0.0477,25.89,78.25,98.2,0.078,0.143,0.979,0.0077,W
6.7,0.0155,10.36,72.72,98.5,0.078,0.145,0.975,0.0116,W
6.71,-0.001,-45.55,68.47,98.1,0.079,0.154,0.977,0.0081,W
6.72,0.0416,89.32,72.42,98.3,0.067,0.156,0.981,0.0047,W
6.73,0.0366,36.47,76.77,98.3,0.077,0.144,0.979,0.0075,W
6.74,0.0814,-82.07,71.66,98.5,0.082,0.146,0.978,0.0075,W
6.75,0.1477,5.3,58.78,98.1,0.071,0.147,0.986,0.0005,W
6.76,0.1944,84.15,59.75,98.2,0.081,0.14,0.978,0.0085,W
6.77,0.2659,-37.76,56.54,98.1,0.083,0.153,0.981,0.0038,W
6.78,0.2593,-12.1,60.82,98.5,0.08,0.15,0.99,0.0049,W
6.79,0.2899,79.23,61.77,98.3,0.081,0.153,0.978,0.0065,W
6.8,0.3152,-14.59,60.85,98.4,0.085,0.143,0.983,0.0032,W
6.81,0.3116,-53.87,50.82,98.2,0.079,0.157,0.99,0.0055,W
6.82,0.2866,-3.69,49.38,98.1,0.086,0.167,0.976,0.0057,W
6.83,0.2975,25.99,41.06,98.2,0.084,0.146,0.984,0.002,W
6.84,0.2234,60.67,33.5,98.4,0.082,0.151,0.982,0.0033,W
6.85,0.1971,85.8,40.87,98.0,0.073,0.141,0.977,0.0102,W
6.86,0.1379,-68.99,39.35,98.1,0.086,0.159,0.976,0.0075,W
6.87,0.1239,-11.53,42.14,98.3,0.076,0.161,0.975,0.0089,W
6.88,0.0748,70.1,35.7,98.1,0.096,0.15,0.985,0.0011,W
6.89,0.011,-48.91,20.06,98.4,0.081,0.153,0.981,0.0042,W
6.9,-0.0199,14.04,26.18,98.1,0.076,0.153,0.973,0.0123,W
6.91,0.0204,9.64,22.46,98.5,0.081,0.155,0.978,0.0063,W
6.92,-0.0078,-109.96,17.79,98.3,0.082,0.139,0.975,0.0121,W
6.93,-0.0024,-39.01,24.78,98.3,0.074,0.146,0.98,0.0059,W
6.94,-0.0203,-54.04,6.13,98.3,0.074,0.155,0.974,0.0113,W
6.95,0.0181,-39.21,20.71,98.3,0.082,0.143,0.985,0.0009,W
6.96,-0.0205,-33.91,10.67,98.2,0.077,0.155,0.978,0.0073,W
6.97,0.0209,-8.04,20.28,98.2,0.085,0.152,0.979,0.0058,W
6.98,0.008,-39.29,8.27,98.5,0.084,0.152,0.987,0.0022,W
6.99,0.0298,-0.34,4.14,98.3,0.073,0.145,0.979,0.0079,W
7.0,0.0075,-67.07,9.23,98.5,0.078,0.151,0.98,0.0052,W
7.01,0.0226,35.72,8.68,97.9,0.076,0.152,0.988,0.0022,W
7.02,0.0887,-30.79,17.76,98.2,0.071,0.152,0.983,0.0031,W
7.03,0.116,-36.32,8.87,98.2,0.074,0.145,0.979,0.0074,W
7.04,0.1456,7.5,6.5,98.2,0.08,0.155,0.981,0.0041,W
7.05,0.1667,2.61,14.23,97.9,0.08,0.147,0.978,0.0077,W
7.06,0.1245,61.51,-1.34,98.3,0.081,0.152,0.983,0.0025,W
7.07,0.0561,-26.35,0.4,98.5,0.083,0.15,0.984,0.0016,W
7.08,0.0492,-18.21,12.78,98.6,0.075,0.145,0.985,0.0011,W
7.09,0.0179,52.21,-2.09,98.4,0.071,0.148,0.974,0.0127,W
7.1,0.0297,28.81,-4.57,98.2,0.08,0.152,0.975,0.0099,W
7.11,-0.016,27.98,-2.32,97.8,0.078,0.144,0.981,0.0055,W
7.12,0.034,-26.68,7.22,98.3,0.081,0.15,0.972,0.0133,W
7.13,0.011,29.82,1.5,98.0,0.075,0.152,0.98,0.0059,W
7.14,-0.0012,16.13,-2.6,98.2,0.075,0.159,0.977,0.0075,W
7.15,-0.061,-14.43,8.53,98.5,0.078,0.165,0.982,0.0013,W
7.16,-0.0715,7.13,3.57,98.1,0.073,0.148,0.987,0.0003,W
7.17,-0.095,-15.99,-9.15,98.6,0.077,0.148,0.98,0.0061,W
7.18,0.2033,-8.78,3.66,98.4,0.082,0.149,0.979,0.0064,W
7.19,0.6078,-59.71,7.42,98.3,0.084,0.147,0.967,0.0183,W
7.2,1.128,23.23,8.9,98.1,0.075,0.153,0.977,0.0082,W
7.21,1.2458,-42.39,-5.27,98.0,0.079,0.141,0.976,0.0104,W
7.22,0.8895,55.29,-1.9,98.2,0.071,0.151,0.978,0.0075,W
7.23,0.3428,-37.35,-1.32,98.0,0.081,0.151,0.981,0.0045,W
7.24,-0.027,-26.83,2.04,98.3,0.083,0.155,0.972,0.0124,W
7.25,-0.2313,24.35,1.07,97.9,0.079,0.155,0.98,0.0043,W
7.26,-0.2825,-6.11,0.06,98.2,0.084,0.153,0.981,0.0032,W
7.27,-0.2015,-2.5,5.48,98.4,0.09,0.145,0.976,0.0096,W
7.28,-0.067,34.25,7.31,98.2,0.082,0.152,0.989,0.0043,W
7.29,-0.0345,39.78,-2.35,98.1,0.079,0.151,0.977,0.0085,W
7.3,0.0187,-36.2,-1.8,98.2,0.081,0.152,0.975,0.0099,W
7.31,0.0157,59.14,-8.15,98.3,0.08,0.152,0.981,0.0039,W
7.32,0.0118,-23.48,-2.02,98.3,0.079,0.14,0.981,0.0056,W
7.33,0.063,-32.2,5.73,98.2,0.076,0.146,0.975,0.0113,W
7.34,0.0551,27.66,4.19,98.4,0.075,0.149,0.975,0.0104,W
7.35,0.1478,51.3,-0.02,98.4,0.078,0.156,0.978,0.0067,W
7.36,0.144,31.36,10.2,98.3,0.078,0.146,0.975,0.0108,W
7.37,0.1639,71.75,4.19,98.4,0.082,0.147,0.972,0.0138,W
7.38,0.2369,61.76,7.66,98.1,0.079,0.148,0.987,0.001,W
7.39,0.2728,57.5,2.28,98.1,0.074,0.153,0.976,0.0092,W
7.4,0.3143,17.3,-0.91,98.1,0.075,0.154,0.973,0.012,W
7.41,0.3775,-7.24,5.34,98.1,0.087,0.145,0.973,0.0125,W
7.42,0.3303,7.03,1.54,98.2,0.083,0.144,0.983,0.0032,W
7.43,0.3771,63.19,6.16,98.2,0.08,0.154,0.977,0.0076,W
7.44,0.3625,21.16,1.05,98.1,0.082,0.15,0.98,0.0055,W
7.45,0.3482,-33.26,-7.0,98.3,0.077,0.148,0.984,0.0017,W
7.46,0.3045,4.38,-6.19,98.3,0.089,0.151,0.979,0.0056,W
7.47,0.262,35.73,3.84,98.2,0.077,0.152,0.978,0.0078,W
7.48,0.1786,-57.25,-3.22,98.2,0.076,0.148,0.973,0.0132,W
7.49,0.1624,-52.37,3.63,98.2,0.079,0.158,0.975,0.0093,W
7.5,0.1211,68.63,-1.98,98.3,0.076,0.145,0.986,0.0001,W
7.51,0.1066,-64.78,-0.25,98.5,0.08,0.148,0.982,0.0037,W
7.52,0.068,-38.03,-4.34,97.8,0.077,0.134,0.982,0.006,W
7.53,0.0955,3.19,1.5,98.5,0.078,0.148,0.978,0.0079,W
7.54,0.0252,2.25,-9.02,98.5,0.079,0.153,0.979,0.0059,W
7.55,0.0697,74.78,1.81,98.4,0.08,0.144,0.973,0.0127,W
7.56,0.034,-8.06,-0.31,98.3,0.082,0.149,0.974,0.0107,W
7.57,0.0352,24.04,1.0,98.3,0.077,0.15,0.984,0.0013,W
7.58,0.0392,126.55,5.26,98.1,0.079,0.148,0.98,0.0056,W
7.59,0.0374,-10.5,-6.75,98.4,0.085,0.152,0.982,0.0024,W
7.6,0.0203,-41.13,-10.37,98.3,0.079,0.143,0.981,0.0057,W
7.61,0.0308,-71.47,-7.76,98.5,0.076,0.16,0.971,0.0131,W
7.62,0.0619,81.42,-4.82,98.2,0.083,0.15,0.98,0.0049,W
7.63,0.0675,56.99,2.78,98.3,0.083,0.152,0.987,0.0018,W
7.64,0.1256,-80.35,2.97,98.0,0.079,0.138,0.982,0.0048,W
7.65,0.1442,2.54,8.86,98.2,0.085,0.156,0.983,0.001,W
7.66,0.2089,-33.38,-5.91,98.1,0.08,0.152,0.989,0.0037,W
7.67,0.182,-19.76,1.22,98.4,0.08,0.148,0.982,0.0039,W
7.68,0.163,16.32,0.79,98.1,0.072,0.146,0.976,0.0106,W
7.69,0.1332,71.86,1.25,98.1,0.081,0.159,0.981,0.0025,W
7.7,0.097,-64.89,-8.8,98.1,0.08,0.156,0.98,0.0044,W
7.71,0.0871,-89.34,-0.43,98.1,0.076,0.146,0.982,0.0041,W
7.72,0.0645,0.47,-0.66,98.3,0.083,0.159,0.983,0.0012,W
7.73,0.051,-2.55,-1.27,98.3,0.085,0.156,0.978,0.0059,W
7.74,0.0416,25.13,3.62,98.2,0.083,0.148,0.98,0.0059,W
7.75,0.0453,-32.08,-1.64,98.2,0.084,0.155,0.986,0.0021,W
7.76,0.0794,76.58,-3.7,98.1,0.088,0.149,0.978,0.0067,W
7.77,0.0497,-53.16,0.39,98.5,0.086,0.169,0.983,0.0013,W
7.78,0.0416,-28.57,0.57,98.3,0.071,0.146,0.976,0.0103,W
7.79,-0.0715,80.42,5.46,98.2,0.087,0.156,0.971,0.0131,W
7.8,0.0034,77.12,-1.23,98.2,0.08,0.148,0.985,0.0007,W
7.81,0.3389,-7.71,5.62,98.2,0.085,0.147,0.988,0.0024,W
7.82,0.8484,0.98,-4.85,98.0,0.078,0.153,0.987,0.0023,W
7.83,1.2342,45.55,-3.96,98.5,0.079,0.147,0.982,0.0043,W
7.84,1.1879,-37.95,-4.16,98.0,0.079,0.159,0.983,0.0014,W
7.85,0.7415,-66.21,0.33,98.2,0.077,0.148,0.97,0.0161,W
7.86,0.2382,-58.8,-1.18,98.4,0.086,0.143,0.983,0.0032,W
7.87,-0.0553,-13.54,-1.5,98.1,0.077,0.155,0.98,0.0052,W
7.88,-0.2001,-15.58,-2.68,98.0,0.071,0.154,0.979,0.0065,W
7.89,-0.2254,-89.61,-0.13,98.1,0.079,0.136,0.976,0.0117,W
7.9,-0.1145,-98.02,-0.12,98.1,0.08,0.147,0.978,0.0078,W
7.91,-0.0416,-30.8,-2.47,97.8,0.082,0.153,0.975,0.0095,W
7.92,0.0099,42.9,3.61,98.0,0.07,0.145,0.977,0.0094,W
7.93,0.0302,47.73,2.2,98.2,0.075,0.154,0.977,0.0081,W
7.94,0.0441,81.28,-1.19,98.2,0.079,0.151,0.976,0.0088,W
7.95,0.0554,81.78,2.53,98.1,0.084,0.152,0.981,0.0034,W
7.96,0.0964,-5.8,10.08,98.2,0.078,0.151,0.987,0.002,W
7.97,0.1335,13.64,5.18,98.4,0.074,0.153,0.998,0.0122,W
7.98,0.1873,30.86,2.17,97.9,0.081,0.146,0.984,0.0019,W
7.99,0.1817,7.23,4.14,98.2,0.081,0.149,0.977,0.0079,W
8.0,0.2396,-49.21,8.01,98.1,0.076,0.145,0.981,0.0052,W
8.01,0.2771,-19.89,10.33,98.1,0.083,0.156,0.979,0.0052,W
8.02,0.2863,-33.34,14.26,98.1,0.082,0.154,0.978,0.007,W
8.03,0.3297,114.93,4.73,98.5,0.078,0.15,0.981,0.0043,W
8.04,0.3949,-6.76,8.26,98.1,0.081,0.147,0.981,0.0049,W
8.05,0.3775,39.28,7.0,98.0,0.082,0.143,0.976,0.0098,W
8.06,0.3556,-17.09,14.55,98.2,0.083,0.162,0.973,0.0106,W
8.07,0.3922,58.83,13.97,98.2,0.08,0.153,0.98,0.0053,W
8.08,0.34,-27.52,23.1,98.1,0.078,0.155,0.982,0.0026,W
8.09,0.2857,48.65,28.15,98.3,0.073,0.157,0.976,0.0083,W
8.1,0.2589,-52.46,20.88,98.1,0.074,0.154,0.983,0.0027,W
8.11,0.226,-57.26,28.56,98.2,0.085,0.149,0.976,0.009,W
8.12,0.1843,-41.23,30.47,98.3,0.082,0.15,0.982,0.0032,W
8.13,0.1425,-2.66,38.97,98.1,0.091,0.149,0.975,0.0093,W
8.14,0.1006,86.27,33.92,98.1,0.081,0.151,0.982,0.0028,W
8.15,0.1037,36.23,41.25,98.2,0.083,0.144,0.981,0.0055,W
8.16,0.0688,-54.89,31.11,98.2,0.088,0.143,0.978,0.0074,W
8.17,0.0828,20.35,43.13,98.4,0.085,0.15,0.98,0.0048,W
8.18,0.0771,-48.6,49.33,98.1,0.086,0.144,0.978,0.0079,W
8.19,0.0412,-21.58,42.99,98.0,0.077,0.15,0.982,0.0036,W
8.2,0.0493,-27.5,48.89,98.6,0.079,0.146,0.982,0.0042,W
8.21,0.0416,-47.22,48.95,97.9,0.07,0.144,0.975,0.0117,W
8.22,0.0648,-74.3,60.04,98.2,0.075,0.146,0.976,0.0102,W
8.23,0.0647,24.33,54.39,98.1,0.072,0.148,0.977,0.009,W
8.24,0.035,25.38,57.86,98.2,0.078,0.148,0.978,0.0081,W
8.25,0.1144,43.7,75.45,97.9,0.073,0.157,0.978,0.0072,W
8.26,0.0947,-36.85,72.16,98.2,0.078,0.144,0.984,0.0027,W
8.27,0.1352,-76.87,74.49,98.2,0.079,0.143,0.983,0.0037,W
8.28,0.1779,21.67,69.25,98.3,0.084,0.148,0.98,0.0049,W
8.29,0.1744,37.63,74.93,98.1,0.079,0.141,0.971,0.0161,W
8.3,0.1739,-11.96,82.21,98.0,0.077,0.151,0.981,0.0049,W
8.31,0.195,30.38,71.28,98.1,0.091,0.14,0.973,0.0124,W
8.32,0.1165,-6.31,75.11,98.3,0.083,0.158,0.985,0.0007,W
8.33,0.0859,84.33,76.69,98.2,0.085,0.145,0.981,0.0045,W
8.34,0.0612,-14.36,86.57,98.1,0.083,0.149,0.978,0.0075,W
8.35,0.0934,106.37,78.09,98.2,0.078,0.148,0.986,0.0,W
8.36,0.0628,103.27,71.9,98.4,0.081,0.147,0.989,0.0028,W
8.37,0.0642,-27.54,76.28,98.0,0.078,0.141,0.973,0.0133,W
8.38,0.0517,-40.6,78.01,97.9,0.075,0.151,0.981,0.0043,W
8.39,0.0407,7.79,74.43,98.4,0.072,0.153,0.977,0.0087,W
8.4,-0.0313,32.59,69.19,98.2,0.083,0.158,0.979,0.0053,W
8.41,-0.0679,8.36,77.14,98.2,0.085,0.154,0.98,0.0046,W
8.42,-0.0334,-56.99,66.78,98.0,0.09,0.151,0.984,0.0005,W
8.43,0.2255,-36.48,52.25,98.4,0.085,0.153,0.982,0.0028,W
8.44,0.6842,-67.87,65.95,98.1,0.075,0.136,0.988,0.0002,W
8.45,1.164,-18.87,56.78,98.2,0.08,0.158,0.973,0.0106,W
8.46,1.2341,-33.64,50.32,98.2,0.086,0.147,0.978,0.0068,W
8.47,0.8503,-39.52,60.15,98.2,0.076,0.149,0.983,0.0025,W
8.48,0.332,-12.82,56.96,98.3,0.087,0.153,0.988,0.0034,W
8.49,-0.0469,11.78,46.62,98.1,0.077,0.144,0.981,0.0054,W
8.5,-0.1913,-5.91,47.5,98.1,0.076,0.155,0.977,0.008,W
8.51,-0.2307,-162.84,40.59,98.2,0.081,0.152,0.972,0.0125,W
8.52,-0.1659,-19.99,37.16,98.2,0.079,0.152,0.974,0.0114,W
8.53,-0.0595,-59.65,33.89,98.1,0.081,0.154,0.977,0.0074,W
8.54,0.0221,-25.39,27.52,98.0,0.083,0.153,0.978,0.0067,W
8.55,0.032,30.31,27.24,98.3,0.079,0.151,0.973,0.0126,W
8.56,0.0656,10.37,27.78,98.0,0.075,0.153,0.979,0.0062,W
8.57,0.0517,-19.41,24.68,98.1,0.072,0.152,0.977,0.0088,W
8.58,0.0658,-20.05,24.2,98.2,0.084,0.149,0.982,0.0035,W
8.59,0.0782,-17.06,19.27,98.1,0.079,0.153,0.977,0.008,W
8.6,0.131,107.36,19.55,98.1,0.071,0.149,0.985,0.0009,W
8.61,0.1414,-16.62,13.85,98.0,0.076,0.145,0.988,0.001,W
8.62,0.1915,-85.14,17.2,98.2,0.087,0.15,0.981,0.004,W
8.63,0.2311,-28.73,8.62,98.3,0.075,0.156,0.974,0.0105,W
8.64,0.283,-0.28,9.43,98.2,0.077,0.146,0.988,0.002,W
8.65,0.295,-104.63,4.78,98.3,0.08,0.15,0.978,0.0069,W
8.66,0.3628,6.92,8.92,98.1,0.08,0.141,0.977,0.0095,W
8.67,0.3861,3.79,4.4,98.1,0.086,0.148,0.978,0.0069,W
8.68,0.3942,-83.46,1.66,98.1,0.082,0.152,0.974,0.0113,W
8.69,0.3516,17.45,-2.89,98.3,0.073,0.15,0.976,0.0094,W
8.7,0.3348,-27.36,5.23,98.0,0.083,0.144,0.983,0.0031,W
8.71,0.3002,-30.83,3.04,98.4,0.072,0.148,0.983,0.0032,W
8.72,0.2584,-43.29,14.16,98.2,0.081,0.155,0.983,0.0013,W
8.73,0.2294,28.59,2.74,98.0,0.083,0.154,0.976,0.0089,W
8.74,0.1426,23.08,4.87,98.1,0.076,0.152,0.992,0.0066,W
8.75,0.0629,-85.44,1.83,98.0,0.091,0.152,0.984,0.0004,W
8.76,0.0766,16.95,9.32,98.0,0.077,0.147,0.981,0.0048,W
8.77,0.0843,89.4,11.6,97.8,0.079,0.15,0.982,0.0035,W
8.78,0.0413,7.98,5.33,98.1,0.09,0.149,0.977,0.008,W
8.79,0.0141,-68.28,-1.2,97.9,0.081,0.141,0.974,0.0125,W
8.8,0.0231,-1.74,5.07,98.3,0.079,0.159,0.977,0.0072,W
8.81,0.0386,62.8,-5.6,97.9,0.074,0.153,0.972,0.0136,W
8.82,0.0081,-4.95,1.75,98.2,0.073,0.143,0.981,0.0056,W
8.83,0.0419,-88.51,-8.66,98.0,0.079,0.148,0.977,0.0091,W
8.84,0.0052,7.7,5.94,98.1,0.086,0.15,0.985,0.0005,W
8.85,0.0257,-78.34,2.29,98.2,0.082,0.138,0.982,0.0052,W
8.86,-0.007,37.2,7.05,97.9,0.085,0.152,0.993,0.0078,W
8.87,0.0463,-44.45,1.46,98.0,0.081,0.15,0.978,0.0069,W
8.88,0.025,-44.0,4.36,98.3,0.086,0.154,0.973,0.0113,W
8.89,0.0493,66.48,-5.02,98.2,0.082,0.154,0.981,0.0036,W
8.9,0.0876,-46.8,6.32,97.9,0.07,0.143,0.981,0.0062,W
8.91,0.1334,-1.22,1.9,98.2,0.07,0.151,0.974,0.0118,W
8.92,0.1513,50.35,-2.44,98.3,0.083,0.154,0.976,0.0082,W
8.93,0.1588,25.53,2.77,98.2,0.084,0.149,0.988,0.0023,W
8.94,0.1031,-11.08,0.55,98.0,0.085,0.145,0.98,0.0059,W
8.95,0.0516,0.52,3.03,98.3,0.08,0.148,0.985,0.0009,W
8.96,0.0328,-31.02,-4.14,97.9,0.079,0.153,0.982,0.0033,W
8.97,0.0349,3.12,-1.13,98.2,0.07,0.151,0.983,0.0029,W
8.98,-0.0023,-5.81,-0.02,98.2,0.083,0.155,0.982,0.002,W
8.99,0.0059,80.55,-1.9,97.7,0.08,0.144,0.971,0.0151,W
9.0,-0.0193,64.36,14.13,98.0,0.084,0.151,0.972,0.0133,W
9.01,-0.0191,18.86,-4.76,98.3,0.08,0.15,0.981,0.0046,W
9.02,-0.0255,16.18,-2.41,98.1,0.073,0.154,0.972,0.0132,W
9.03,-0.0935,-19.55,-1.79,98.1,0.082,0.15,0.973,0.0118,W
9.04,-0.1543,32.59,7.5,97.9,0.077,0.15,0.976,0.0095,W
9.05,0.0145,56.37,-4.86,98.1,0.09,0.147,0.983,0.0018,W
9.06,0.3679,-29.56,0.56,98.3,0.08,0.143,0.979,0.0071,W
9.07,0.8945,7.98,10.57,98.0,0.082,0.157,0.986,0.0021,W
9.08,1.2311,-42.6,-0.71,97.8,0.075,0.156,0.97,0.0145,W
9.09,1.078,-2.4,-7.02,98.0,0.085,0.15,0.981,0.0044,W
9.1,0.522,-1.84,4.7,98.2,0.077,0.15,0.981,0.0047,W
9.11,0.1271,18.28,-1.95,98.0,0.073,0.157,0.986,0.0008,W
9.12,-0.1804,-45.36,-6.06,98.1,0.081,0.148,0.972,0.0133,W
9.13,-0.2947,31.78,-2.67,98.4,0.078,0.153,0.976,0.0089,W
9.14,-0.3092,-47.15,4.61,98.1,0.083,0.153,0.985,0.0,W
9.15,-0.1986,-29.19,-9.82,97.9,0.074,0.152,0.992,0.0058,W
9.16,-0.0752,-20.52,9.11,98.1,0.076,0.144,0.975,0.0117,W
9.17,-0.0118,21.42,8.32,97.9,0.079,0.151,0.977,0.0081,W
9.18,0.0228,25.6,-10.59,98.0,0.082,0.149,0.981,0.0041,W
9.19,-0.0209,-34.27,-7.1,98.1,0.075,0.145,0.984,0.0021,W
9.2,-0.0206,28.96,1.27,98.0,0.082,0.138,0.984,0.0027,W
9.21,0.0226,67.01,1.31,98.2,0.079,0.151,0.976,0.0097,W
9.22,0.0156,-17.97,8.03,98.1,0.084,0.144,0.978,0.0078,W
9.23,0.0534,-96.19,-7.13,98.1,0.078,0.144,0.98,0.0063,W
9.24,0.0716,14.75,-9.24,98.2,0.081,0.148,0.976,0.0091,W
9.25,0.1553,20.0,1.19,97.9,0.082,0.148,0.986,0.0002,W
9.26,0.1778,-13.94,7.68,98.0,0.071,0.146,0.98,0.0069,W
9.27,0.2588,23.18,1.42,98.1,0.077,0.154,0.98,0.0053,W
9.28,0.2405,116.45,-6.32,98.0,0.077,0.157,0.981,0.0035,W
9.29,0.3145,-58.69,-3.98,98.3,0.076,0.145,0.977,0.0095,W
9.3,0.3182,-33.33,-7.95,98.2,0.074,0.151,0.985,0.001,W
9.31,0.3049,89.55,8.52,98.0,0.077,0.142,0.981,0.0054,W
9.32,0.2923,-128.3,-2.59,98.1,0.075,0.154,0.974,0.0114,W
9.33,0.2436,-8.03,2.22,98.0,0.077,0.15,0.983,0.0026,W
9.34,0.2213,-78.38,-5.23,98.1,0.075,0.151,0.983,0.0024,W
9.35,0.1493,24.02,0.01,98.0,0.072,0.152,0.986,0.0003,W
9.36,0.0809,77.44,1.39,98.2,0.081,0.154,0.976,0.0083,W
9.37,0.0728,-94.42,-2.18,98.0,0.083,0.152,0.979,0.0055,W
9.38,0.0147,76.89,-0.32,98.1,0.079,0.148,0.984,0.0021,W
9.39,0.0137,50.54,-0.47,98.2,0.085,0.148,0.985,0.0005,W
9.4,-0.0324,-36.67,3.53,98.1,0.082,0.143,0.986,0.0006,W
9.41,-0.0376,46.62,-7.78,98.1,0.088,0.149,0.974,0.0105,W
9.42,-0.0536,18.49,-0.01,98.0,0.08,0.155,0.977,0.0073,W
9.43,-0.0116,-44.29,-0.02,98.1,0.08,0.163,0.979,0.0046,W
9.44,-0.017,16.99,11.49,98.3,0.08,0.152,0.986,0.0008,W
9.45,-0.0001,60.18,2.09,98.0,0.08,0.153,0.974,0.0104,W
9.46,-0.0395,5.39,0.86,98.0,0.085,0.142,0.985,0.0013,W
9.47,-0.0367,-28.13,2.8,98.1,0.084,0.152,0.978,0.0063,W
9.48,-0.0555,-37.47,-4.42,98.1,0.076,0.143,0.991,0.0043,W
9.49,-0.0332,27.4,-0.07,98.0,0.086,0.146,0.977,0.0082,W
9.5,-0.0337,42.02,1.3,98.1,0.069,0.155,0.981,0.0046,W
9.51,-0.0188,27.56,1.38,97.7,0.085,0.151,0.978,0.0066,W
9.52,0.038,11.63,10.12,97.9,0.075,0.15,0.979,0.0069,W
9.53,0.0705,65.96,9.94,98.1,0.083,0.144,0.99,0.0043,W
9.54,0.1162,134.51,-2.8,98.2,0.084,0.151,0.978,0.0073,W
9.55,0.1375,-12.94,-0.31,97.9,0.084,0.148,0.985,0.0007,W
9.56,0.06,-21.02,-8.8,98.1,0.081,0.148,0.984,0.0021,W
9.57,0.0526,48.76,2.5,97.8,0.083,0.156,0.981,0.0031,W
9.58,0.0097,-7.08,-0.68,98.2,0.078,0.15,0.982,0.004,W
9.59,-0.0055,8.93,6.61,98.1,0.084,0.151,0.98,0.0047,W
9.6,-0.0063,-59.76,-0.37,97.9,0.085,0.153,0.986,0.0019,W
9.61,-0.0295,-73.3,3.41,98.1,0.089,0.148,0.973,0.0118,W
9.62,-0.0459,33.93,1.21,97.9,0.09,0.149,0.985,0.0,W
9.63,-0.0527,47.71,-3.15,97.9,0.073,0.156,0.982,0.0035,W
9.64,-0.0229,-9.73,-3.33,98.1,0.074,0.159,0.986,0.0014,W
9.65,-0.08,-41.91,4.36,98.0,0.077,0.142,0.979,0.0078,W
9.66,-0.1489,9.01,16.61,98.2,0.086,0.154,0.985,0.0008,W
9.67,-0.1365,45.45,5.17,98.0,0.079,0.143,0.985,0.0011,W
9.68,0.1526,43.82,1.85,98.1,0.078,0.149,0.981,0.0046,W
9.69,0.6163,68.19,-2.51,98.1,0.082,0.146,0.976,0.0097,W
9.7,1.1,73.14,-3.13,98.1,0.081,0.148,0.984,0.0017,W
9.71,1.1579,37.99,3.59,98.0,0.078,0.151,0.988,0.0027,W
9.72,0.8126,-44.81,-10.19,97.9,0.077,0.141,0.976,0.0105,W
9.73,0.2669,-99.73,-0.17,97.9,0.076,0.145,0.984,0.0021,W
9.74,-0.1065,39.65,0.02,97.9,0.078,0.157,0.98,0.0049,W
9.75,-0.2925,-38.38,4.8,98.0,0.084,0.149,0.981,0.0045,W
9.76,-0.3373,-46.78,-0.54,98.0,0.072,0.142,0.972,0.0148,W
9.77,-0.2585,34.14,1.13,98.2,0.083,0.148,0.982,0.0031,W
9.78,-0.1346,-1.9,-0.7,98.1,0.076,0.16,0.978,0.0062,W
9.79,-0.1141,45.62,2.67,98.1,0.083,0.149,0.974,0.0112,W
9.8,-0.0694,-6.97,-3.04,98.1,0.085,0.144,0.984,0.0018,W
9.81,-0.0716,-57.27,-2.1,98.1,0.088,0.146,0.989,0.0041,W
9.82,-0.0229,45.44,4.57,98.1,0.077,0.15,0.982,0.0036,W
9.83,-0.0064,-31.39,4.36,98.0,0.075,0.151,0.99,0.0044,W
9.84,0.0156,-12.89,5.22,98.1,0.08,0.146,0.989,0.0028,W
9.85,0.0255,-21.68,4.18,98.2,0.078,0.151,0.976,0.0094,W
9.86,0.088,-23.52,-0.75,98.2,0.08,0.149,0.967,0.0183,W
9.87,0.0834,34.97,3.05,97.9,0.081,0.146,0.99,0.0035,W
9.88,0.1561,-15.14,-1.0,98.0,0.085,0.158,0.98,0.0032,W
9.89,0.1989,-0.4,-3.76,97.8,0.088,0.157,0.982,0.0019,W
9.9,0.2433,10.25,-7.91,97.9,0.077,0.143,0.973,0.014,W
9.91,0.2765,-68.76,1.75,98.0,0.084,0.144,0.976,0.0102,W
9.92,0.3148,46.95,0.64,98.1,0.084,0.152,0.973,0.0112,W
9.93,0.2933,22.43,-1.76,98.2,0.074,0.143,0.987,0.0005,W
9.94,0.2821,-49.2,-7.83,97.8,0.079,0.154,0.979,0.0057,W
9.95,0.2262,-25.41,-0.2,97.7,0.078,0.148,0.978,0.0077,W
9.96,0.2211,8.67,-6.49,97.9,0.076,0.16,0.98,0.0038,W
9.97,0.2216,-28.46,10.04,98.0,0.07,0.154,0.976,0.0096,W
9.98,0.0969,30.37,-7.13,98.2,0.08,0.155,0.986,0.0011,W
9.99,0.0726,20.79,10.17,97.9,0.085,0.158,0.981,0.0023,W
10.0,0.049,17.14,6.86,98.2,0.085,0.155,0.981,0.0028,W
10.01,0.0181,67.94,6.97,98.0,0.082,0.145,0.977,0.0089,W
10.02,-0.0035,-43.99,7.75,97.8,0.08,0.153,0.98,0.0051,W
10.03,0.0279,72.75,-2.24,98.1,0.072,0.155,0.981,0.0042,W
10.04,-0.0384,5.99,3.85,98.1,0.082,0.151,0.974,0.0114,W
10.05,-0.0225,4.41,-4.66,98.2,0.08,0.149,0.974,0.0115,W
10.06,-0.0489,18.76,-0.61,97.8,0.079,0.141,0.985,0.0023,W
10.07,0.0149,-100.97,-0.18,98.1,0.073,0.145,0.98,0.0061,W
10.08,-0.047,85.21,3.42,97.9,0.081,0.145,0.975,0.011,W
10.09,-0.0123,-30.57,-2.87,97.9,0.086,0.147,0.975,0.0103,W
10.1,-0.0092,-33.0,9.58,98.3,0.081,0.144,0.977,0.0092,W
10.11,-0.0108,-6.31,-8.16,97.9,0.081,0.148,0.975,0.0102,W
10.12,-0.0023,8.49,-0.63,98.3,0.079,0.14,0.977,0.0094,W
10.13,0.0215,-7.28,2.55,98.0,0.084,0.143,0.98,0.006,W
10.14,0.0542,67.8,2.22,98.0,0.09,0.152,0.981,0.003,W
10.15,0.05,26.31,9.27,98.0,0.076,0.14,0.984,0.0029,W
10.16,0.096,33.75,3.01,97.8,0.083,0.151,0.973,0.0119,W
10.17,0.1155,-41.1,2.99,97.9,0.08,0.156,0.975,0.0095,W
10.18,0.1217,-31.63,1.07,97.9,0.078,0.154,0.976,0.0085,W
10.19,0.0153,-34.16,1.21,98.1,0.071,0.152,0.985,0.0008,W
10.2,0.0437,50.74,1.39,98.2,0.078,0.153,0.98,0.0053,W
10.21,-0.0124,100.42,1.96,98.2,0.077,0.142,0.983,0.0042,W
10.22,-0.0088,48.17,-4.45,97.7,0.087,0.141,0.976,0.0101,W
10.23,-0.0233,-75.05,-2.24,98.3,0.092,0.154,0.99,0.0063,W
10.24,-0.0533,-44.73,1.76,97.8,0.087,0.144,0.978,0.0078,W
10.25,-0.0204,-38.66,2.84,98.0,0.077,0.144,0.978,0.0086,W
10.26,-0.0387,-64.15,1.78,98.3,0.076,0.154,0.973,0.0122,W
10.27,-0.0651,-19.14,2.75,98.0,0.08,0.156,0.983,0.0015,W
10.28,-0.1322,-34.16,0.94,98.1,0.075,0.145,0.984,0.0029,W
10.29,-0.1486,59.08,3.69,97.8,0.086,0.151,0.976,0.0086,W
10.3,0.0849,-144.06,5.3,98.1,0.079,0.145,0.987,0.0004,W
10.31,0.5023,-2.41,0.98,98.2,0.08,0.156,0.983,0.0015,W
10.32,1.0189,-64.71,5.98,97.9,0.073,0.148,0.977,0.0088,W
10.33,1.2127,46.05,-0.45,98.1,0.085,0.146,0.979,0.0061,W
10.34,0.9302,-56.34,0.14,98.0,0.082,0.158,0.977,0.0071,W
10.35,0.3912,103.32,5.38,98.0,0.087,0.143,0.983,0.0033,W
10.36,-0.0429,60.94,1.97,97.8,0.075,0.154,0.985,0.0003,W
10.37,-0.2595,-29.6,-0.34,97.9,0.085,0.156,0.984,0.0002,W
10.38,-0.3429,-40.74,9.48,98.1,0.083,0.15,0.976,0.0095,W
10.39,-0.2561,-7.08,7.03,97.9,0.08,0.151,0.973,0.0119,W
10.4,-0.1046,18.75,1.6,98.1,0.091,0.156,0.984,0.0,W
10.41,-0.0877,-30.14,-14.43,98.1,0.081,0.155,0.977,0.0071,W
10.42,-0.0523,-11.9,0.14,97.6,0.082,0.153,0.982,0.0028,W
10.43,-0.0022,-64.36,-0.91,97.8,0.083,0.155,0.982,0.0025,W
10.44,0.005,-44.51,6.82,97.9,0.082,0.146,0.976,0.0093,W
10.45,0.0124,53.25,10.88,98.0,0.081,0.151,0.982,0.0029,W
10.46,0.0559,-53.59,-3.58,98.0,0.077,0.144,0.98,0.0068,W
10.47,0.0528,21.47,-3.95,98.0,0.086,0.146,0.978,0.0077,W
10.48,0.0715,-17.04,5.71,98.0,0.072,0.153,0.983,0.0021,W
10.49,0.1194,40.07,4.79,98.0,0.088,0.142,0.982,0.0038,W
10.5,0.1999,52.17,-4.26,98.1,0.088,0.145,0.979,0.0063,W
10.51,0.2322,0.18,10.7,98.0,0.084,0.156,0.978,0.0061,W
10.52,0.2986,28.9,5.83,97.8,0.09,0.16,0.98,0.0032,W
10.53,0.3087,51.69,7.96,98.0,0.081,0.148,0.973,0.0127,W
10.54,0.3401,-72.44,-0.38,98.1,0.078,0.142,0.981,0.0059,W
10.55,0.3248,-42.09,3.09,98.2,0.081,0.148,0.982,0.0032,W
10.56,0.3436,-8.84,-5.27,98.1,0.077,0.139,0.981,0.0058,W
10.57,0.3092,45.03,-2.01,97.9,0.089,0.16,0.979,0.0045,W
10.58,0.2697,-59.14,-3.29,98.0,0.085,0.154,0.983,0.001,W
10.59,0.2358,-12.85,-2.49,98.2,0.085,0.149,0.976,0.009,W
10.6,0.2013,52.68,-1.63,97.9,0.079,0.148,0.982,0.0033,W
10.61,0.1175,-55.09,2.1,97.6,0.084,0.143,0.987,0.0009,W
10.62,0.099,15.49,10.91,97.8,0.077,0.151,0.984,0.0016,W
10.63,0.032,45.85,-5.23,98.0,0.071,0.154,0.989,0.003,W
10.64,0.0325,28.33,-5.02,98.1,0.081,0.146,0.985,0.0014,W
10.65,-0.0187,-32.21,0.31,97.9,0.078,0.145,0.99,0.0036,W
10.66,0.0323,-15.63,8.3,98.2,0.075,0.154,0.979,0.0059,W
10.67,-0.0229,47.74,5.42,98.0,0.081,0.149,0.982,0.0032,W
10.68,-0.0375,41.79,2.43,98.2,0.078,0.16,0.985,0.0008,W
10.69,0.0165,47.98,8.92,97.9,0.083,0.147,0.984,0.002,W
10.7,-0.0597,-61.37,5.92,98.0,0.082,0.159,0.98,0.0036,W
10.71,0.0198,-79.98,5.02,98.2,0.077,0.151,0.979,0.006,W
10.72,0.0157,14.73,6.23,97.9,0.083,0.148,0.979,0.0067,W
10.73,0.0281,-20.59,8.11,97.9,0.077,0.148,0.982,0.0037,W
10.74,0.0139,-7.02,-2.48,98.0,0.081,0.158,0.978,0.0058,W
10.75,0.0701,-44.05,10.84,98.0,0.08,0.144,0.982,0.004,W
10.76,0.032,-23.98,14.12,98.0,0.079,0.148,0.977,0.0085,W
10.77,0.1132,-11.27,-3.95,97.9,0.073,0.141,0.983,0.0045,W
10.78,0.1482,-17.94,-0.89,97.9,0.084,0.138,0.993,0.0055,W
10.79,0.1451,42.88,0.3,97.7,0.078,0.152,0.978,0.007,W
10.8,0.1579,-44.63,0.36,97.9,0.073,0.149,0.98,0.0059,W
10.81,0.1369,17.23,0.07,98.0,0.071,0.146,0.978,0.0085,W
10.82,0.0632,31.93,-2.34,97.8,0.078,0.161,0.981,0.0029,W
10.83,0.028,-100.3,6.07,97.7,0.086,0.15,0.987,0.0016,W
10.84,0.0567,6.14,4.86,98.1,0.074,0.145,0.986,0.0009,W
10.85,0.0173,-39.51,-7.38,98.1,0.081,0.158,0.978,0.0056,W
10.86,0.0039,56.85,-8.25,97.9,0.08,0.147,0.987,0.0014,W
10.87,0.0199,38.54,2.32,97.9,0.088,0.143,0.981,0.0043,W
10.88,0.0183,-11.65,-0.07,98.1,0.085,0.155,0.987,0.0029,W
10.89,-0.018,-17.52,-6.3,98.1,0.085,0.143,0.983,0.0028,W
10.9,-0.0781,-11.22,-6.65,98.1,0.075,0.153,0.981,0.0046,W
10.91,-0.0916,29.44,2.66,97.9,0.082,0.15,0.978,0.0074,W
10.92,0.0733,-20.84,-2.14,97.8,0.078,0.152,0.976,0.0091,W
10.93,0.4336,-94.79,-10.61,97.6,0.078,0.15,0.975,0.0101,W
10.94,0.9496,36.58,4.23,97.6,0.078,0.148,0.98,0.0055,W
10.95,1.2647,-10.36,7.16,97.9,0.083,0.151,0.977,0.0079,W
10.96,1.0785,29.5,1.55,97.9,0.086,0.156,0.978,0.0058,W
10.97,0.5642,27.29,-2.63,98.0,0.085,0.144,0.978,0.0083,W
10.98,0.135,-66.35,-1.14,97.8,0.076,0.15,0.981,0.0049,W
10.99,-0.1366,-14.59,0.23,98.1,0.078,0.149,0.975,0.0103,W
11.0,-0.2829,-12.76,-0.07,98.0,0.078,0.145,0.981,0.0054,W
11.01,-0.2452,-130.2,1.6,97.7,0.087,0.143,0.985,0.0011,W
11.02,-0.0835,-70.08,-0.12,97.7,0.082,0.153,0.977,0.0074,W
11.03,-0.064,-2.28,-2.41,97.8,0.079,0.145,0.985,0.0011,W
11.04,-0.008,13.61,-6.15,98.1,0.086,0.157,0.976,0.0082,W
11.05,0.0765,-31.78,8.03,98.1,0.078,0.148,0.976,0.0093,W
11.06,0.0143,3.19,-3.27,97.9,0.087,0.145,0.979,0.0064,W
11.07,0.077,9.91,4.13,97.8,0.083,0.149,0.976,0.009,W
11.08,0.0355,29.64,-2.91,97.9,0.072,0.147,0.981,0.005,W
11.09,0.1071,-124.62,-10.74,97.8,0.081,0.154,0.981,0.0032,W
11.1,0.1088,79.54,3.19,97.8,0.08,0.154,0.982,0.0031,W
11.11,0.1571,62.18,2.5,97.8,0.077,0.148,0.99,0.0042,W
11.12,0.209,89.16,-6.17,97.5,0.084,0.154,0.975,0.0091,W
11.13,0.2611,88.87,2.94,98.0,0.068,0.151,0.977,0.0088,W
11.14,0.3011,28.87,-7.32,98.1,0.077,0.152,0.972,0.0131,W
11.15,0.364,-15.26,-17.16,98.0,0.075,0.149,0.974,0.0115,W
11.16,0.3858,31.99,2.89,97.9,0.086,0.146,0.974,0.0116,W
11.17,0.3879,-56.52,-0.09,98.1,0.077,0.145,0.981,0.0053,W
11.18,0.3865,11.72,3.4,97.9,0.083,0.154,0.98,0.004,W
11.19,0.387,-25.05,-6.36,98.1,0.079,0.153,0.991,0.0054,W
11.2,0.3288,43.62,-0.13,97.6,0.08,0.154,0.985,0.0005,W
11.21,0.2652,84.13,-3.28,97.8,0.078,0.147,0.971,0.0146,W
11.22,0.2349,-60.71,1.01,97.7,0.087,0.148,0.985,0.0004,W
11.23,0.181,-32.58,6.61,97.7,0.075,0.148,0.983,0.003,W
11.24,0.1733,-25.46,-5.19,97.9,0.076,0.153,0.981,0.0047,W
11.25,0.121,-16.41,-6.9,97.8,0.08,0.156,0.98,0.0042,W
11.26,0.0979,-20.87,3.81,97.7,0.085,0.147,0.984,0.0019,W
11.27,0.0834,-35.73,3.59,98.0,0.074,0.155,0.985,0.0,W
11.28,0.0699,-65.6,-14.17,97.9,0.088,0.158,0.983,0.0008,W
11.29,0.073,-18.63,-7.27,97.8,0.078,0.151,0.986,0.0002,W
11.3,0.0279,-61.86,5.74,97.7,0.084,0.148,0.975,0.0104,W
11.31,0.0501,-10.93,1.26,98.1,0.084,0.15,0.978,0.0068,W
11.32,0.0262,94.22,-1.46,97.7,0.074,0.15,0.979,0.0065,W
11.33,0.0486,-32.21,-3.43,97.6,0.079,0.156,0.978,0.0068,W
11.34,0.0601,65.01,3.9,98.0,0.073,0.156,0.983,0.0018,W
11.35,0.0156,-28.97,-0.58,97.9,0.088,0.147,0.981,0.0044,W
11.36,0.0413,11.43,2.74,98.0,0.077,0.146,0.979,0.0067,W
11.37,0.0835,-55.03,-1.19,97.7,0.077,0.142,0.98,0.007,W
11.38,0.0971,19.12,6.43,97.7,0.082,0.141,0.974,0.0127,W
11.39,0.1205,5.66,0.01,98.0,0.079,0.153,0.975,0.0103,W
11.4,0.1613,63.69,1.92,98.1,0.089,0.15,0.979,0.0052,W
11.41,0.2033,-98.98,9.89,97.8,0.084,0.155,0.973,0.0112,W
11.42,0.1793,-25.73,-2.23,97.9,0.065,0.149,0.98,0.0064,W
11.43,0.1656,31.26,0.1,97.9,0.083,0.151,0.969,0.0161,W
11.44,0.1418,-18.52,-5.02,98.1,0.084,0.148,0.982,0.0035,W
11.45,0.0959,-57.88,4.89,97.8,0.079,0.145,0.978,0.0081,W
11.46,0.1065,-52.57,-3.08,97.8,0.078,0.15,0.976,0.01,W
11.47,0.0765,0.4,6.74,97.8,0.088,0.146,0.985,0.0005,W
11.48,0.0545,-15.33,-10.29,97.8,0.075,0.143,0.993,0.0062,W
11.49,-0.0042,108.75,3.06,97.8,0.089,0.149,0.978,0.0068,W
11.5,0.0637,-90.99,-2.75,97.8,0.085,0.156,0.974,0.0101,W
11.51,0.0697,-80.88,-2.96,97.8,0.074,0.149,0.986,0.0003,W
11.52,-0.0086,-20.37,-2.49,97.5,0.087,0.147,0.971,0.0144,W
11.53,-0.0579,65.68,-3.26,97.8,0.081,0.157,0.982,0.0026,W
11.54,-0.0226,-29.04,-4.0,97.9,0.077,0.144,0.979,0.0077,W
11.55,0.2499,6.17,1.08,97.8,0.078,0.144,0.976,0.0104,W
11.56,0.6834,-45.14,5.04,98.1,0.083,0.16,0.971,0.0124,W
11.57,1.1861,-9.72,5.95,97.9,0.083,0.148,0.978,0.0077,W
11.58,1.2396,-20.26,0.03,97.7,0.077,0.158,0.98,0.0043,W
11.59,0.8884,64.78,-7.21,98.1,0.073,0.157,0.987,0.002,W
11.6,0.3715,30.78,1.67,97.9,0.073,0.143,0.983,0.0045,W
11.61,0.0153,-91.55,5.13,97.8,0.081,0.151,0.986,0.0008,W
11.62,-0.1846,46.38,2.53,97.8,0.081,0.15,0.978,0.0074,W
11.63,-0.2014,96.92,0.92,97.9,0.081,0.147,0.988,0.0021,W
11.64,-0.156,-7.56,7.6,97.7,0.078,0.147,0.977,0.009,W
11.65,-0.0381,-24.68,0.62,97.8,0.08,0.156,0.981,0.0037,W
11.66,0.0257,-37.43,4.77,97.7,0.09,0.14,0.976,0.0096,W
11.67,0.059,16.93,2.05,98.0,0.081,0.141,0.981,0.006,W
11.68,0.0785,-15.95,-9.56,98.0,0.079,0.154,0.973,0.0115,W
11.69,0.0638,-52.53,4.53,97.9,0.081,0.148,0.984,0.0017,W
11.7,0.0841,-106.66,5.94,98.0,0.086,0.148,0.984,0.001,W
11.71,0.1061,2.22,-3.69,97.7,0.084,0.152,0.977,0.008,W
11.72,0.1499,-37.04,-1.72,97.6,0.077,0.155,0.979,0.0058,W
11.73,0.1737,-35.42,1.49,97.9,0.075,0.153,0.982,0.0035,W
11.74,0.214,31.75,-0.06,97.9,0.088,0.144,0.98,0.006,W
11.75,0.2463,-71.74,0.79,97.7,0.075,0.152,0.979,0.0064,W
11.76,0.3167,54.74,-0.24,98.1,0.084,0.151,0.992,0.0072,W
11.77,0.3557,-19.91,0.79,97.7,0.07,0.151,0.976,0.0101,W
11.78,0.3672,-58.41,5.44,97.9,0.076,0.142,0.982,0.0051,W
11.79,0.4025,8.98,3.98,97.7,0.072,0.14,0.986,0.0017,W
11.8,0.3578,-24.05,4.66,97.9,0.08,0.145,0.983,0.0029,W
11.81,0.3478,-30.64,-1.69,97.7,0.084,0.165,0.993,0.0098,W
11.82,0.3571,5.71,3.33,98.0,0.084,0.154,0.981,0.003,W
11.83,0.2935,32.33,7.53,97.7,0.077,0.156,0.98,0.0047,W
11.84,0.2556,-37.12,2.33,97.8,0.079,0.145,0.985,0.001,W
11.85,0.1882,-10.97,-0.64,98.0,0.082,0.155,0.975,0.0093,W
11.86,0.1564,16.64,-3.96,98.1,0.085,0.145,0.979,0.0064,W
11.87,0.1457,-23.41,-5.14,97.9,0.077,0.148,0.979,0.0068,W
11.88,0.1308,38.28,9.39,97.7,0.087,0.156,0.976,0.0074,W
11.89,0.0828,-24.75,1.32,97.9,0.078,0.149,0.986,0.0006,W
11.9,0.0443,3.21,-4.18,97.9,0.081,0.145,0.98,0.0063,W
11.91,0.0806,-15.79,-5.75,97.7,0.079,0.146,0.98,0.0061,W
11.92,0.0552,64.34,-0.67,97.9,0.082,0.142,0.972,0.0139,W
11.93,0.0492,-20.85,1.09,98.1,0.085,0.149,0.976,0.0087,W
11.94,0.0287,-52.58,2.67,98.0,0.081,0.158,0.975,0.0085,W
11.95,0.0735,-37.23,-6.1,97.9,0.067,0.145,0.971,0.0156,W
11.96,0.0285,18.7,6.08,97.9,0.085,0.146,0.978,0.0075,W
11.97,0.0619,-79.92,2.03,97.7,0.084,0.164,0.973,0.0101,W
11.98,0.0402,-10.65,6.27,97.9,0.072,0.148,0.98,0.0059,W
11.99,0.0361,28.7,-1.92,97.8,0.084,0.155,0.979,0.0053,W
12.0,0.1256,-12.6,4.71,97.9,0.075,0.155,0.986,0.0005,W
12.01,0.1453,64.87,3.75,97.8,0.077,0.146,0.987,0.001,W
12.02,0.1334,65.52,4.23,98.0,0.073,0.155,0.977,0.0077,W
12.03,0.2148,8.21,0.69,97.6,0.068,0.147,0.974,0.0122,W
12.04,0.1967,-1.32,1.52,97.8,0.086,0.147,0.975,0.0105,W
12.05,0.1926,14.6,5.49,97.8,0.078,0.151,0.981,0.0044,W
12.06,0.1573,63.94,-6.33,97.6,0.074,0.139,0.973,0.0144,W
12.07,0.0989,-53.87,6.1,97.9,0.073,0.15,0.976,0.0102,W
12.08,0.0554,16.73,6.02,97.8,0.079,0.144,0.979,0.0069,W
12.09,0.0425,9.42,0.25,97.8,0.073,0.15,0.979,0.0069,W
12.1,0.0332,-52.85,8.42,97.7,0.088,0.157,0.977,0.0066,W
12.11,0.0269,105.92,-4.59,97.6,0.075,0.15,0.981,0.0047,W
12.12,0.02,2.31,0.42,97.6,0.068,0.143,0.982,0.0055,W
12.13,0.0212,18.62,1.37,98.1,0.081,0.15,0.975,0.0103,W
12.14,0.0134,20.16,-0.7,97.7,0.081,0.147,0.977,0.0086,W
12.15,-0.0787,16.16,-8.97,97.9,0.078,0.144,0.98,0.0061,W
12.16,-0.05,33.61,0.39,97.6,0.084,0.145,0.973,0.0124,W
12.17,0.2255,-63.73,-2.48,97.8,0.079,0.148,0.981,0.0052,W
12.18,0.7371,1.77,4.42,97.9,0.08,0.139,0.975,0.0118,W
12.19,1.1363,-6.98,-0.52,97.5,0.074,0.149,0.981,0.0049,W
12.2,1.2497,-46.86,-1.07,97.7,0.082,0.148,0.984,0.0015,W
12.21,0.8137,43.09,1.23,97.7,0.079,0.145,0.98,0.006,W
12.22,0.3112,-20.59,5.31,97.8,0.079,0.153,0.971,0.0144,W
12.23,-0.0454,-1.97,9.52,97.8,0.078,0.149,0.985,0.0006,W
12.24,-0.244,-21.47,-7.26,97.9,0.08,0.153,0.976,0.0084,W
12.25,-0.3029,73.67,-5.55,97.8,0.077,0.15,0.976,0.0092,W
12.26,-0.1744,-59.89,10.02,97.7,0.074,0.155,0.979,0.0062,W
12.27,-0.0626,-29.53,1.27,97.8,0.081,0.145,0.974,0.0116,W
12.28,-0.0017,-37.17,-10.64,97.7,0.078,0.152,0.985,0.0003,W
12.29,0.0498,44.97,-0.61,97.6,0.083,0.148,0.984,0.0019,W
12.3,0.0275,-58.77,1.09,97.8,0.077,0.147,0.971,0.0146,W
12.31,0.0368,20.97,5.0,97.8,0.083,0.148,0.981,0.0046,W
12.32,0.0063,-12.87,12.04,97.9,0.089,0.149,0.985,0.0001,W
12.33,0.0861,92.42,-2.09,97.9,0.081,0.139,0.979,0.0083,W
12.34,0.1033,71.8,2.92,97.6,0.073,0.144,0.981,0.0061,W
12.35,0.1545,11.64,-7.58,98.0,0.078,0.155,0.982,0.0029,W
12.36,0.1761,67.27,0.18,97.5,0.077,0.155,0.989,0.0045,W
12.37,0.2372,-10.06,-2.2,97.9,0.083,0.142,0.982,0.0047,W
12.38,0.249,35.8,15.34,97.8,0.085,0.161,0.983,0.0004,W
12.39,0.3198,4.78,7.84,97.9,0.088,0.146,0.985,0.0006,W
12.4,0.3511,-29.91,-4.07,97.8,0.08,0.146,0.98,0.0063,W
12.41,0.3752,-22.24,-0.91,97.6,0.073,0.151,0.977,0.0084,W
12.42,0.394,30.43,-4.18,98.0,0.086,0.153,0.984,0.0009,W
12.43,0.3069,-63.23,10.3,97.6,0.082,0.15,0.985,0.0007,W
12.44,0.3333,-16.97,2.71,97.7,0.081,0.144,0.976,0.0097,W
12.45,0.2574,39.7,-2.69,97.7,0.074,0.15,0.979,0.0066,W
12.46,0.2256,-48.6,-1.36,97.8,0.082,0.148,0.986,0.0004,W
12.47,0.1655,31.65,1.71,97.7,0.087,0.148,0.985,0.0003,W
12.48,0.1358,59.27,-1.64,97.8,0.078,0.149,0.989,0.0029,W
12.49,0.0769,51.5,1.61,97.7,0.074,0.147,0.988,0.0019,W
12.5,0.0769,-37.78,6.99,98.0,0.079,0.167,0.982,0.0007,W
12.51,0.0377,95.98,-3.18,97.7,0.08,0.156,0.98,0.0044,W
12.52,0.0232,105.67,7.45,97.9,0.088,0.152,0.979,0.0052,W
12.53,0.0116,12.67,2.58,98.1,0.08,0.144,0.985,0.0015,W
12.54,-0.0279,-34.89,5.43,97.8,0.083,0.149,0.978,0.007,W
12.55,0.0589,51.31,-2.18,97.9,0.087,0.156,0.98,0.0042,W
12.56,-0.0122,129.49,4.87,97.9,0.087,0.152,0.975,0.0093,W
12.57,0.0046,-38.8,-3.65,97.5,0.078,0.147,0.98,0.0056,W
12.58,0.0186,8.87,6.72,98.1,0.083,0.15,0.978,0.0073,W
12.59,-0.0079,-103.0,7.59,97.4,0.08,0.14,0.974,0.0127,W
12.6,-0.0214,33.31,-5.38,97.8,0.077,0.146,0.972,0.0138,W
12.61,0.0114,31.7,0.01,97.8,0.071,0.157,0.982,0.0032,W
12.62,0.0441,-15.93,3.51,97.6,0.08,0.159,0.991,0.0065,W
12.63,0.0311,-41.45,-0.87,97.9,0.077,0.152,0.983,0.0019,W
12.64,0.0729,-23.25,1.31,97.7,0.076,0.153,0.99,0.005,W
12.65,0.1505,28.02,-1.34,97.7,0.085,0.156,0.971,0.0127,W
12.66,0.155,-1.3,0.83,97.6,0.075,0.144,0.982,0.005,W
12.67,0.144,77.66,6.76,97.8,0.078,0.145,0.984,0.0023,W
12.68,0.064,83.71,2.98,97.6,0.079,0.149,0.975,0.0107,W
12.69,0.0951,-19.65,5.07,97.6,0.082,0.152,0.982,0.003,W
12.7,0.0121,47.74,-8.7,97.5,0.081,0.151,0.985,0.0006,W
12.71,0.0075,91.68,7.18,97.7,0.081,0.155,0.992,0.0072,W
12.72,-0.0314,-50.96,-3.49,97.4,0.084,0.148,0.988,0.003,W
12.73,-0.0023,-16.83,1.57,97.8,0.077,0.147,0.975,0.011,W
12.74,-0.0438,59.87,2.76,97.6,0.087,0.148,0.975,0.0102,W
12.75,-0.0174,7.69,1.35,97.9,0.08,0.153,0.979,0.0062,W
12.76,-0.0352,33.47,-8.84,97.9,0.082,0.148,0.975,0.0099,W
12.77,-0.0926,63.77,-2.02,97.9,0.079,0.146,0.988,0.0021,W
12.78,-0.1675,-20.53,1.42,97.6,0.068,0.142,0.977,0.0099,W
12.79,0.0411,-25.04,-1.62,97.6,0.072,0.148,0.977,0.0095,W
12.8,0.4278,-7.02,0.92,97.4,0.079,0.146,0.975,0.0106,W
12.81,0.9399,12.01,6.88,97.7,0.084,0.145,0.992,0.0066,W
12.82,1.2176,-56.91,1.03,97.4,0.081,0.14,0.971,0.0154,W
12.83,0.9783,82.12,2.53,97.6,0.076,0.149,0.968,0.0175,W
12.84,0.5043,19.28,4.71,98.0,0.077,0.15,0.978,0.0074,W
12.85,0.031,55.21,-4.39,98.0,0.078,0.151,0.966,0.0193,W
12.86,-0.2687,51.36,0.81,97.5,0.081,0.158,0.98,0.0043,W
12.87,-0.3123,-37.09,5.04,97.6,0.094,0.154,0.974,0.0097,W
12.88,-0.2661,50.97,-3.75,97.8,0.073,0.152,0.979,0.0065,W
12.89,-0.1704,-61.61,-3.93,97.8,0.077,0.156,0.979,0.0055,W
12.9,-0.0729,-32.65,-0.2,97.6,0.089,0.145,0.982,0.0029,W
12.91,-0.0254,-1.98,-0.71,97.9,0.073,0.158,0.974,0.0103,W
12.92,-0.0226,26.15,5.62,97.9,0.07,0.144,0.986,0.0007,W
12.93,-0.0549,17.64,0.27,97.9,0.08,0.149,0.982,0.004,W
12.94,0.0292,2.56,3.51,97.7,0.078,0.156,0.981,0.0037,W
12.95,-0.0054,-7.26,12.79,97.7,0.082,0.157,0.976,0.0084,W
12.96,0.0714,-28.86,-6.58,97.7,0.08,0.154,0.98,0.0045,W
12.97,0.0785,-10.62,-0.13,97.9,0.089,0.151,0.991,0.0066,W
12.98,0.1118,-19.08,-4.55,97.9,0.077,0.153,0.977,0.0083,W
12.99,0.1698,-11.95,3.99,97.6,0.073,0.15,0.982,0.0035,W
13.0,0.1668,-2.72,-3.5,97.5,0.08,0.148,0.978,0.0075,W
13.01,0.2374,39.45,4.55,97.9,0.085,0.153,0.987,0.0022,W
13.02,0.2902,65.29,-2.1,98.1,0.081,0.152,0.981,0.0037,W
13.03,0.2958,24.89,1.6,98.0,0.081,0.148,0.974,0.0111,W
13.04,0.341,-52.17,-0.48,97.8,0.071,0.149,0.984,0.0022,W
13.05,0.3242,-68.77,-0.43,97.8,0.081,0.148,0.981,0.0048,W
13.06,0.2568,11.9,-4.09,97.5,0.072,0.145,0.978,0.0083,W
13.07,0.2228,-46.27,3.4,97.9,0.083,0.142,0.982,0.0047,W
13.08,0.1941,20.15,6.12,97.6,0.077,0.154,0.979,0.0062,W
13.09,0.1381,0.23,-2.67,97.5,0.09,0.147,0.987,0.0022,W
13.1,0.1085,6.61,-9.7,97.9,0.078,0.153,0.987,0.0021,W
13.11,0.0183,-35.17,4.75,97.7,0.079,0.154,0.973,0.0114,W
13.12,0.0081,-14.21,3.18,97.8,0.073,0.139,0.984,0.0033,W
13.13,0.0314,4.61,1.97,97.8,0.084,0.14,0.969,0.0169,W
13.14,-0.0383,-16.41,-2.03,97.7,0.074,0.153,0.975,0.0099,W
13.15,-0.0254,50.12,1.16,97.8,0.078,0.151,0.989,0.0039,W
13.16,-0.0569,-26.43,-2.62,97.8,0.078,0.146,0.978,0.0086,W
13.17,-0.0394,-12.9,-0.55,97.8,0.082,0.143,0.98,0.0064,W
13.18,-0.0001,28.71,-4.54,97.8,0.077,0.154,0.984,0.0009,W
13.19,-0.0401,14.26,6.73,97.8,0.083,0.156,0.972,0.0118,W
13.2,-0.0254,57.98,-7.62,97.7,0.084,0.156,0.98,0.0038,W
13.21,-0.055,-40.0,-2.82,97.7,0.085,0.15,0.98,0.0051,W
13.22,-0.0206,6.37,3.5,97.8,0.073,0.146,0.979,0.0074,W
13.23,-0.0172,88.62,1.77,97.7,0.08,0.144,0.981,0.0048,W
13.24,-0.0191,-26.65,-4.56,97.7,0.075,0.151,0.982,0.0039,W
13.25,-0.0219,-15.33,8.55,97.4,0.083,0.154,0.99,0.0056,W
13.26,0.0115,9.45,3.89,97.5,0.089,0.145,0.984,0.0015,W
13.27,0.0471,28.08,-8.53,97.7,0.074,0.149,0.976,0.0096,W
13.28,0.1044,11.87,4.46,97.7,0.078,0.152,0.981,0.0044,W
13.29,0.133,31.87,-7.06,97.4,0.071,0.148,0.986,0.0005,W
13.3,0.1195,40.46,-2.17,97.6,0.08,0.15,0.986,0.0001,W
13.31,0.0732,47.9,11.6,97.9,0.075,0.151,0.981,0.0045,W
13.32,0.0286,66.76,8.37,97.7,0.078,0.143,0.983,0.0039,W
13.33,0.0,54.62,-2.42,97.8,0.077,0.153,0.985,0.0001,W
13.34,-0.0376,56.37,0.58,97.7,0.069,0.151,0.982,0.0042,W
13.35,-0.0667,-13.55,-6.72,97.9,0.08,0.153,0.986,0.0006,W
13.36,-0.0455,60.15,-7.41,97.6,0.087,0.15,0.992,0.0068,W
13.37,-0.0338,-82.81,-2.21,97.7,0.076,0.153,0.984,0.001,W
13.38,-0.0623,4.63,-0.2,97.8,0.088,0.151,0.979,0.0054,W
13.39,-0.0336,-12.91,-4.58,97.8,0.078,0.151,0.985,0.0001,W
13.4,-0.1297,87.07,2.49,97.8,0.084,0.149,0.979,0.0062,W
13.41,-0.1698,-37.89,5.51,97.9,0.076,0.155,0.973,0.012,W
13.42,-0.0611,-25.34,3.77,97.8,0.084,0.155,0.966,0.0181,W
13.43,0.3275,32.68,-1.27,97.5,0.082,0.144,0.976,0.0103,W
13.44,0.9107,-29.12,2.89,97.9,0.08,0.153,0.984,0.0011,W
13.45,1.1752,-32.31,-2.57,97.6,0.077,0.142,0.972,0.0147,W
13.46,1.0265,-7.93,-4.38,97.7,0.083,0.158,0.979,0.0054,W
13.47,0.5246,39.17,11.99,97.6,0.082,0.156,0.981,0.0032,W
13.48,0.0097,12.24,0.39,97.7,0.087,0.151,0.983,0.0014,W
13.49,-0.2329,-83.0,2.22,97.6,0.079,0.144,0.98,0.0068,W
13.5,-0.3596,9.82,-10.75,98.0,0.087,0.16,0.977,0.0062,W
13.51,-0.3331,45.82,-2.9,97.7,0.075,0.154,0.975,0.0098,W
13.52,-0.1495,71.89,-0.22,97.8,0.074,0.149,0.983,0.0027,W
13.53,-0.1094,4.67,3.14,97.5,0.081,0.156,0.984,0.0,W
13.54,-0.0575,57.93,-1.21,97.8,0.086,0.148,0.979,0.0062,W
13.55,-0.0304,-14.34,6.37,97.7,0.075,0.145,0.982,0.0049,W
13.56,-0.0153,-28.12,4.37,97.6,0.081,0.143,0.978,0.0078,W
13.57,-0.0268,17.76,6.4,97.6,0.086,0.15,0.982,0.0028,W
13.58,-0.0343,30.67,1.77,98.0,0.08,0.149,0.985,0.0009,W
13.59,0.0213,0.08,2.04,97.8,0.077,0.153,0.983,0.002,W
13.6,0.0582,119.73,-0.05,97.6,0.078,0.148,0.982,0.0043,W
13.61,0.0984,-27.67,-6.66,97.7,0.08,0.146,0.991,0.0051,W
13.62,0.1002,-12.39,-0.57,97.5,0.087,0.149,0.972,0.0132,W
13.63,0.207,-39.4,9.82,97.8,0.082,0.155,0.985,0.0005,W
13.64,0.2666,25.07,3.26,97.9,0.08,0.151,0.985,0.0007,W
13.65,0.2515,7.88,-2.42,97.6,0.09,0.151,0.975,0.0093,W
13.66,0.2909,-16.72,9.53,97.8,0.09,0.149,0.985,0.0004,W
13.67,0.2815,-53.61,6.01,97.7,0.078,0.153,0.974,0.0109,W
13.68,0.2824,-95.24,0.3,97.7,0.076,0.149,0.983,0.0028,W
13.69,0.2785,83.8,1.2,97.4,0.08,0.145,0.979,0.0072,W
13.7,0.2426,-16.89,-4.12,97.7,0.071,0.148,0.977,0.0091,W
13.71,0.2481,-28.37,2.49,97.7,0.081,0.151,0.977,0.0079,W
13.72,0.1479,56.85,-3.05,97.7,0.075,0.149,0.978,0.0075,W
13.73,0.1265,16.31,0.94,97.9,0.086,0.15,0.98,0.0047,W
13.74,0.0733,-53.93,-3.73,97.8,0.085,0.158,0.976,0.0077,W
13.75,0.0283,-60.3,-1.11,97.7,0.081,0.153,0.977,0.0076,W
13.76,0.0127,42.08,-0.35,97.9,0.071,0.144,0.982,0.0049,W
13.77,-0.0093,-80.3,-0.75,97.5,0.077,0.152,0.98,0.0049,W
13.78,-0.0062,26.91,-7.84,97.6,0.086,0.15,0.98,0.0052,W
13.79,-0.0106,7.85,1.38,97.6,0.086,0.156,0.975,0.0089,W
13.8,-0.0389,4.84,-6.01,97.7,0.074,0.151,0.977,0.0087,W
13.81,-0.043,36.3,1.94,97.9,0.079,0.153,0.979,0.006,W
13.82,-0.0055,69.08,-3.52,97.7,0.078,0.158,0.976,0.008,W
13.83,-0.0238,-98.41,-3.85,97.8,0.075,0.153,0.968,0.0172,W
13.84,-0.0223,46.57,-6.89,98.0,0.081,0.149,0.982,0.0038,W
13.85,0.0053,-30.05,2.55,97.7,0.081,0.148,0.986,0.0001,W
13.86,-0.0634,33.72,0.7,98.0,0.08,0.15,0.979,0.0063,W
13.87,-0.042,11.56,2.78,97.9,0.078,0.154,0.978,0.0065,W
13.88,0.0254,-84.02,-3.98,98.0,0.076,0.154,0.986,0.0008,W
13.89,0.0732,26.68,1.16,97.5,0.078,0.16,0.981,0.0027,W
13.9,0.0657,20.9,-6.05,97.7,0.073,0.143,0.981,0.0059,W
13.91,0.1194,76.55,6.03,97.6,0.075,0.147,0.978,0.0082,W
13.92,0.1504,23.33,1.96,97.6,0.082,0.15,0.978,0.0077,W
13.93,0.1024,-102.89,1.26,97.8,0.08,0.151,0.978,0.0071,W
13.94,0.0761,2.06,-2.92,97.7,0.081,0.154,0.972,0.0129,W
13.95,0.0549,61.09,-4.65,97.5,0.08,0.151,0.984,0.0016,W
13.96,-0.019,-51.13,6.05,97.8,0.078,0.16,0.975,0.009,W
13.97,0.0074,-33.76,8.66,98.0,0.08,0.151,0.982,0.0029,W
13.98,-0.0371,37.96,0.01,97.9,0.083,0.151,0.979,0.0061,W
13.99,0.0054,99.42,-3.84,97.7,0.08,0.148,0.977,0.0084,W
14.0,-0.0154,-17.5,-4.52,97.8,0.087,0.141,0.975,0.0108,W
14.01,-0.0415,79.78,1.21,97.8,0.083,0.143,0.975,0.0108,W
14.02,-0.0583,-72.58,-1.39,97.6,0.083,0.148,0.974,0.0113,W
14.03,-0.146,35.09,-2.07,97.6,0.082,0.148,0.988,0.0025,W
14.04,-0.1186,-27.05,-9.33,98.0,0.077,0.143,0.981,0.0052,W
14.05,0.0817,47.1,-5.68,97.8,0.079,0.16,0.977,0.0067,W
14.06,0.5392,16.49,-8.53,97.7,0.083,0.155,0.979,0.005,W
14.07,1.0284,11.02,6.92,97.4,0.076,0.145,0.984,0.0026,W
14.08,1.2379,-0.48,4.89,97.7,0.073,0.162,0.989,0.0053,W
14.09,0.9439,69.87,1.14,97.6,0.082,0.149,0.981,0.0039,W
14.1,0.4118,73.96,1.42,97.8,0.075,0.152,0.973,0.0126,W
14.11,0.0034,43.61,1.53,97.5,0.083,0.149,0.983,0.0025,W
14.12,-0.2343,11.89,6.52,98.0,0.086,0.147,0.979,0.0058,W
14.13,-0.2825,35.47,-0.37,97.8,0.077,0.15,0.984,0.0021,W
14.14,-0.2739,-33.82,-6.19,97.7,0.089,0.153,0.986,0.0014,W
14.15,-0.1206,40.77,-1.51,98.1,0.072,0.149,0.973,0.0131,W
14.16,-0.037,-49.34,5.48,97.6,0.084,0.145,0.987,0.0008,W
14.17,-0.016,16.68,-7.08,97.8,0.087,0.145,0.98,0.0052,W
14.18,0.0276,45.42,2.34,97.9,0.082,0.157,0.973,0.0108,W
14.19,-0.0249,-15.97,12.76,97.8,0.091,0.146,0.982,0.003,W
14.2,0.0123,-24.17,-4.19,97.6,0.081,0.156,0.983,0.0016,W
14.21,0.0561,62.04,0.22,97.6,0.084,0.15,0.981,0.0044,W
14.22,0.0576,-11.91,-8.1,97.8,0.08,0.155,0.988,0.0036,W
14.23,0.1151,38.25,-5.01,97.8,0.084,0.152,0.979,0.0062,W
14.24,0.1552,87.18,-4.11,97.6,0.076,0.149,0.984,0.0016,W
14.25,0.1743,-84.93,0.32,97.6,0.082,0.145,0.975,0.0113,W
14.26,0.2971,-17.43,4.81,97.5,0.071,0.146,0.975,0.0111,W
14.27,0.2501,-85.27,-1.59,97.7,0.079,0.146,0.98,0.0062,W
14.28,0.2844,40.6,2.67,97.5,0.085,0.148,0.983,0.0023,W
14.29,0.3609,12.03,-11.04,97.5,0.077,0.149,0.991,0.0052,W
14.3,0.3238,-1.67,-0.27,97.8,0.077,0.145,0.976,0.0107,W
14.31,0.3634,72.5,7.58,97.9,0.077,0.148,0.981,0.0048,W
14.32,0.2683,39.76,3.53,97.7,0.086,0.152,0.981,0.0032,W
14.33,0.282,-53.38,1.92,97.7,0.081,0.146,0.981,0.0046,W
14.34,0.2671,-78.42,3.82,97.8,0.076,0.146,0.983,0.0033,W
14.35,0.1921,-23.86,-0.3,97.7,0.073,0.153,0.98,0.0056,W
14.36,0.1272,47.19,-5.19,97.9,0.085,0.159,0.976,0.0073,W
14.37,0.1203,-24.22,-7.89,97.7,0.08,0.144,0.982,0.0038,W
14.38,0.0816,-6.37,-2.06,97.9,0.082,0.152,0.982,0.0028,W
14.39,0.0694,36.82,-0.25,97.5,0.075,0.153,0.977,0.0087,W
14.4,0.0023,27.53,1.18,97.2,0.088,0.155,0.978,0.0059,W
14.41,0.0317,-42.39,6.8,97.7,0.09,0.144,0.972,0.0131,W
14.42,0.0354,-22.24,6.27,97.6,0.081,0.151,0.978,0.0071,W
14.43,0.0205,41.6,-2.33,97.7,0.071,0.154,0.982,0.0035,W
14.44,-0.0154,-19.03,-0.85,98.1,0.087,0.149,0.979,0.0054,W
14.45,0.0415,-79.14,4.24,97.7,0.082,0.148,0.983,0.0024,W
14.46,0.0186,-60.39,0.0,98.0,0.081,0.153,0.981,0.0041,W
14.47,-0.021,-4.0,-2.82,97.6,0.079,0.154,0.979,0.0055,W
14.48,0.0046,-80.33,6.17,97.6,0.077,0.155,0.978,0.0065,W
14.49,0.0465,62.42,4.08,97.6,0.074,0.15,0.987,0.0013,W
14.5,0.0482,38.36,-2.48,97.6,0.083,0.149,0.989,0.0035,W
14.51,0.0782,-23.12,2.24,97.7,0.082,0.151,0.975,0.0104,W
14.52,0.1515,15.02,2.27,98.0,0.081,0.146,0.978,0.0075,W
14.53,0.1355,-9.95,-5.06,97.7,0.084,0.149,0.977,0.0081,W
14.54,0.1638,-48.52,-11.58,97.6,0.08,0.148,0.982,0.0033,W
14.55,0.1502,46.45,-0.06,97.9,0.088,0.14,0.979,0.0072,W
14.56,0.1561,-45.95,6.81,97.6,0.087,0.146,0.981,0.004,W
14.57,0.1135,-57.32,-2.97,97.6,0.072,0.164,0.975,0.0089,W
14.58,0.0792,12.41,-4.18,97.4,0.076,0.152,0.985,0.0001,W
14.59,0.0384,92.65,-0.64,97.7,0.085,0.161,0.978,0.0053,W
14.6,0.0335,-38.35,-0.3,97.4,0.079,0.153,0.981,0.0037,W
14.61,0.0106,-13.25,-1.16,97.4,0.082,0.156,0.978,0.0062,W
14.62,0.0227,8.72,-0.75,97.7,0.085,0.149,0.989,0.0035,W
14.63,0.0076,-50.61,-2.34,97.7,0.084,0.151,0.987,0.002,W
14.64,0.0208,8.44,4.02,97.4,0.086,0.143,0.972,0.0137,W
14.65,-0.0545,62.31,-3.7,97.5,0.072,0.149,0.975,0.0112,W
14.66,-0.0848,2.37,-0.28,97.6,0.084,0.157,0.982,0.0019,W
14.67,0.0989,28.15,0.43,97.8,0.076,0.158,0.981,0.0035,W
14.68,0.4529,-9.13,-0.25,97.6,0.08,0.15,0.977,0.0079,W
14.69,0.9724,-91.01,-4.33,97.8,0.075,0.141,0.988,0.0011,W
14.7,1.2902,-89.07,-3.03,97.7,0.076,0.154,0.975,0.0098,W
14.71,1.1125,48.35,6.28,97.6,0.083,0.153,0.985,0.0002,W
14.72,0.5982,3.43,1.36,97.7,0.084,0.149,0.982,0.0034,W
14.73,0.1111,25.03,-2.43,97.8,0.081,0.142,0.977,0.0097,W
14.74,-0.1582,4.68,-9.2,97.5,0.081,0.146,0.974,0.0121,W
14.75,-0.2328,56.94,-0.87,97.6,0.082,0.145,0.981,0.0045,W
14.76,-0.2234,-52.07,2.85,97.5,0.074,0.151,0.974,0.0117,W
14.77,-0.1333,25.91,3.8,97.8,0.083,0.158,0.975,0.0087,W
14.78,-0.0199,44.18,-3.02,97.4,0.079,0.154,0.983,0.0019,W
14.79,0.0389,42.18,-10.13,97.5,0.088,0.153,0.982,0.0021,W
14.8,0.081,-44.62,1.09,97.8,0.081,0.155,0.976,0.0085,W
14.81,0.0468,2.06,-6.9,97.8,0.079,0.148,0.974,0.0115,W
14.82,0.0961,8.67,3.43,97.6,0.08,0.152,0.982,0.0027,W
14.83,0.0724,5.99,0.26,97.9,0.08,0.15,0.987,0.0018,W
14.84,0.0726,-54.51,-6.79,97.8,0.078,0.163,0.984,0.0005,W
14.85,0.1218,-14.36,-6.19,97.8,0.085,0.151,0.981,0.0037,W
14.86,0.194,8.47,-3.68,97.6,0.084,0.149,0.972,0.0126,W
14.87,0.2385,-108.04,1.61,97.7,0.075,0.161,0.981,0.0029,W
14.88,0.2822,-60.36,0.17,97.6,0.078,0.155,0.977,0.0076,W
14.89,0.3301,42.6,-0.09,97.9,0.077,0.147,0.982,0.0043,W
14.9,0.3275,-18.55,-3.15,97.8,0.079,0.148,0.986,0.0005,W
14.91,0.3704,-56.23,-3.68,97.7,0.079,0.14,0.986,0.0009,W
14.92,0.3707,97.61,-2.38,97.8,0.076,0.159,0.98,0.0042,W
14.93,0.3933,87.44,-7.51,97.6,0.077,0.154,0.983,0.0023,W
14.94,0.3677,-51.18,0.01,97.6,0.083,0.152,0.986,0.0007,W
14.95,0.3162,-40.89,-5.45,97.6,0.085,0.143,0.978,0.0079,W
14.96,0.2859,3.3,3.05,97.7,0.072,0.15,0.978,0.0078,W
14.97,0.23,-18.94,11.88,97.7,0.083,0.15,0.981,0.0042,W
14.98,0.1809,-47.69,12.31,97.6,0.082,0.154,0.971,0.0132,W
14.99,0.1547,61.61,3.2,97.4,0.08,0.145,0.98,0.0061,W
15.0,0.1308,22.07,5.74,97.6,0.087,0.143,0.976,0.0094,W
15.01,0.1004,-136.54,0.49,97.4,0.087,0.149,0.978,0.0067,W
15.02,0.0706,-77.3,-1.57,97.8,0.077,0.149,0.986,0.0006,W
15.03,0.0408,-100.7,1.09,97.8,0.085,0.147,0.982,0.0036,W
15.04,0.0379,8.56,3.62,97.8,0.081,0.153,0.979,0.0061,W
15.05,0.076,-0.28,0.69,97.7,0.075,0.154,0.975,0.01,W
15.06,0.0008,27.59,0.34,97.5,0.089,0.142,0.975,0.0102,W
15.07,0.0347,-69.08,5.48,97.5,0.079,0.155,0.976,0.0084,W
15.08,0.0653,61.82,5.36,97.9,0.08,0.157,0.978,0.0064,W
15.09,0.0485,-26.46,-0.21,97.5,0.077,0.149,0.979,0.0063,W
15.1,0.0355,2.86,-1.07,97.8,0.08,0.148,0.984,0.0015,W
15.11,0.043,-85.46,-2.81,97.8,0.077,0.15,0.98,0.0056,W
15.12,0.0745,-35.76,-1.77,97.9,0.072,0.141,0.974,0.0129,W
15.13,0.1423,4.54,-7.7,97.6,0.072,0.153,0.99,0.004,W
15.14,0.1476,-35.99,1.15,98.0,0.087,0.158,0.971,0.0124,W
15.15,0.2198,-12.23,2.16,97.6,0.081,0.148,0.986,0.0004,W
15.16,0.1897,-34.23,5.89,97.5,0.086,0.153,0.977,0.007,W
15.17,0.192,9.46,4.47,97.7,0.077,0.145,0.981,0.0051,W
15.18,0.1226,-22.52,-3.87,97.8,0.089,0.149,0.973,0.0115,W
15.19,0.1536,-25.46,-0.31,97.6,0.073,0.147,0.975,0.0115,W
15.2,0.1199,-49.06,6.46,97.7,0.077,0.153,0.981,0.0046,W
15.21,0.0888,49.44,-0.42,97.7,0.077,0.15,0.975,0.0101,W
15.22,0.0508,48.91,9.95,97.7,0.083,0.15,0.978,0.0069,W
15.23,0.0834,-73.98,1.42,97.9,0.08,0.155,0.984,0.0003,W
15.24,0.0821,-0.17,-2.69,97.7,0.084,0.143,0.976,0.0099,W
15.25,0.0142,-131.41,8.22,97.9,0.075,0.144,0.973,0.014,W
15.26,0.014,-81.56,-11.07,97.6,0.08,0.151,0.986,0.0008,W
15.27,-0.0326,10.72,1.29,97.6,0.078,0.151,0.985,0.0007,W
15.28,-0.051,-91.22,0.77,97.9,0.074,0.154,0.978,0.0068,W
15.29,0.0778,31.31,0.49,97.8,0.08,0.148,0.978,0.0074,W
15.3,0.4593,-80.04,2.15,97.9,0.073,0.154,0.982,0.0037,W
15.31,1.0014,2.81,-11.87,97.8,0.09,0.147,0.987,0.0023,W
15.32,1.2879,8.88,5.23,97.9,0.077,0.147,0.98,0.0064,W
15.33,1.1017,31.53,-7.74,97.7,0.077,0.147,0.973,0.013,W
15.34,0.5478,122.76,-1.43,97.7,0.086,0.153,0.986,0.0014,W
15.35,0.0818,-18.98,4.24,97.8,0.079,0.154,0.977,0.0082,W
15.36,-0.1057,-75.99,5.12,97.7,0.076,0.15,0.986,0.0002,W
15.37,-0.2196,32.86,1.29,97.8,0.088,0.154,0.978,0.0062,W
15.38,-0.2053,-28.78,-2.37,97.8,0.075,0.158,0.981,0.0031,W
15.39,-0.0988,9.89,4.33,97.6,0.089,0.147,0.987,0.002,W
15.4,0.0307,13.7,2.45,97.6,0.074,0.151,0.981,0.0047,W
15.41,0.0254,-6.79,0.79,97.7,0.076,0.152,0.985,0.0003,W
15.42,0.0479,-94.97,4.4,97.8,0.088,0.145,0.986,0.0005,W
15.43,0.0266,-22.46,-1.21,97.6,0.08,0.157,0.985,0.0002,W
15.44,0.0714,15.28,-9.75,97.7,0.087,0.151,0.988,0.003,W
15.45,0.1207,-23.63,-2.56,98.0,0.078,0.152,0.976,0.0089,W
15.46,0.1172,32.62,-3.02,97.6,0.077,0.15,0.978,0.0077,W
15.47,0.1699,-81.84,-5.83,97.6,0.068,0.149,0.983,0.0034,W
15.48,0.1652,16.41,-5.39,97.5,0.084,0.159,0.98,0.0033,W
15.49,0.2091,-59.73,9.64,97.9,0.077,0.156,0.988,0.0028,W
15.5,0.2588,-0.84,6.73,98.0,0.081,0.137,0.975,0.0124,W
15.51,0.3158,-67.9,5.67,97.7,0.085,0.147,0.974,0.0118,W
15.52,0.3893,89.21,-3.99,97.9,0.082,0.156,0.982,0.0019,W
15.53,0.3917,39.99,0.14,97.6,0.073,0.148,0.987,0.0005,W
15.54,0.3964,-54.74,1.76,97.7,0.075,0.149,0.975,0.011,W
15.55,0.3929,-80.35,-4.77,97.9,0.087,0.146,0.979,0.0065,W
15.56,0.3441,-163.75,1.07,97.7,0.087,0.152,0.983,0.002,W
15.57,0.3076,-38.23,-2.92,97.6,0.083,0.149,0.984,0.0009,W
15.58,0.2569,49.86,-2.11,97.8,0.086,0.155,0.974,0.0104,W
15.59,0.2567,-36.75,7.87,97.6,0.083,0.145,0.98,0.0061,W
15.6,0.1882,-139.58,2.43,98.1,0.08,0.167,0.973,0.0092,W
15.61,0.1739,57.1,-7.5,97.9,0.084,0.162,0.983,0.0007,W
15.62,0.1137,-286.52,7.3,98.1,0.079,0.159,0.975,0.009,W
15.63,0.0578,-100.2,-7.58,97.9,0.086,0.149,0.982,0.0028,W
15.64,0.0872,-3.71,-9.08,97.9,0.081,0.153,0.977,0.0079,W
15.65,0.0584,148.9,9.65,97.6,0.089,0.15,0.976,0.0081,W
15.66,0.039,14.93,-4.68,97.8,0.073,0.149,0.98,0.0059,W
15.67,0.0133,-86.58,5.67,97.7,0.082,0.145,0.978,0.008,W
15.68,0.002,-42.52,0.19,97.3,0.081,0.157,0.98,0.0046,W
15.69,0.0268,-283.16,-1.17,97.8,0.075,0.149,0.977,0.0088,W
15.7,0.0672,62.8,0.76,97.5,0.084,0.146,0.989,0.0032,W
15.71,0.0234,-149.3,3.66,97.6,0.068,0.162,0.97,0.0139,W
15.72,0.0298,270.21,-0.31,97.8,0.078,0.15,0.985,0.0002,W
15.73,-0.0091,52.52,-6.46,97.8,0.084,0.144,0.987,0.0009,W
15.74,0.0905,-115.07,-3.09,97.4,0.072,0.156,0.983,0.0017,W
15.75,0.0974,-136.54,-6.76,97.9,0.079,0.149,0.983,0.0028,W
15.76,0.114,174.28,-4.9,97.6,0.076,0.141,0.974,0.0125,W
15.77,0.1748,70.54,-5.94,97.9,0.082,0.157,0.986,0.0019,W
15.78,0.1666,-24.88,6.5,97.4,0.081,0.153,0.984,0.0012,W
15.79,0.1926,-32.12,-3.94,97.9,0.079,0.143,0.985,0.001,W
15.8,0.1442,-56.53,-1.99,97.7,0.071,0.152,0.984,0.0017,W
15.81,0.0886,272.82,-0.87,97.7,0.077,0.147,0.976,0.0104,W
15.82,0.0805,-12.59,1.48,97.8,0.076,0.148,0.983,0.0032,W
15.83,0.0602,-94.72,-1.08,97.9,0.084,0.157,0.983,0.0007,W
15.84,0.0277,264.5,-1.48,97.8,0.081,0.151,0.983,0.0021,W
15.85,0.0439,-92.66,-3.06,97.6,0.08,0.144,0.975,0.0114,W
15.86,0.0219,94.63,3.92,97.8,0.09,0.156,0.983,0.0009,W
15.87,-0.0102,-107.7,-4.25,97.6,0.074,0.159,0.987,0.0027,W
15.88,-0.0382,119.67,-3.09,97.7,0.083,0.156,0.981,0.0029,W
15.89,-0.058,-108.62,0.83,97.5,0.08,0.155,0.982,0.0023,W
15.9,-0.1207,-246.19,11.7,97.8,0.083,0.145,0.975,0.011,W
15.91,0.0386,-62.45,9.94,97.6,0.083,0.147,0.985,0.0007,W
15.92,0.3691,296.3,-2.06,97.8,0.074,0.149,0.977,0.0088,W
15.93,0.85,6.67,-4.67,97.5,0.085,0.152,0.975,0.0098,W
15.94,1.2542,98.96,-3.53,97.6,0.085,0.147,0.982,0.0031,W
15.95,1.1298,55.9,3.8,97.7,0.09,0.151,0.982,0.0021,W
15.96,0.6666,-138.32,0.91,98.0,0.075,0.149,0.984,0.0022,W
15.97,0.13,47.66,-8.13,97.5,0.079,0.153,0.979,0.0056,W
15.98,-0.1205,-215.11,0.71,97.8,0.079,0.143,0.98,0.0063,W
15.99,-0.2506,174.98,8.33,97.7,0.084,0.149,0.98,0.0054,W
16.0,-0.2527,8.35,-7.07,97.7,0.089,0.156,0.984,0.0007,W
16.01,-0.1353,-11.89,-4.9,97.6,0.074,0.147,0.985,0.0012,W
16.02,-0.078,289.42,2.64,97.7,0.077,0.15,0.973,0.0124,W
16.03,-0.0033,100.29,10.15,97.8,0.077,0.146,0.986,0.0006,W
16.04,0.041,17.11,0.91,97.9,0.07,0.154,0.981,0.0045,W
16.05,0.0278,100.98,2.72,97.5,0.08,0.142,0.986,0.0009,W
16.06,0.0352,133.92,-1.67,97.8,0.081,0.141,0.987,0.0002,W
16.07,0.0185,179.48,2.73,97.8,0.077,0.149,0.974,0.012,W
16.08,0.0534,73.18,-2.35,97.7,0.082,0.151,0.987,0.0023,W
16.09,0.117,101.71,-2.26,97.5,0.092,0.151,0.978,0.0065,W
16.1,0.1573,-0.87,0.12,97.6,0.076,0.146,0.977,0.0097,W
16.11,0.1581,177.83,4.43,97.7,0.081,0.152,0.971,0.0139,W
16.12,0.2025,-139.64,-1.25,97.8,0.08,0.156,0.972,0.0119,W
16.13,0.2385,72.11,-3.62,97.8,0.087,0.145,0.981,0.0049,W
16.14,0.2841,-137.41,-8.33,97.9,0.076,0.147,0.979,0.0072,W
16.15,0.3072,72.3,8.81,98.0,0.079,0.151,0.969,0.0157,W
16.16,0.3363,-88.56,-9.25,97.8,0.085,0.156,0.974,0.0098,W
16.17,0.3659,128.58,2.62,97.7,0.084,0.141,0.982,0.0041,W
16.18,0.3194,56.88,6.19,97.6,0.082,0.161,0.974,0.009,W
16.19,0.2731,-116.28,-4.54,97.7,0.085,0.155,0.985,0.0005,W
16.2,0.2602,105.33,-0.83,97.6,0.084,0.156,0.982,0.0025,W
16.21,0.167,33.34,0.71,97.5,0.083,0.158,0.988,0.0042,W
16.22,0.1576,-141.14,-1.39,97.8,0.081,0.143,0.979,0.0069,W
16.23,0.0983,-24.16,4.13,97.8,0.078,0.152,0.987,0.0015,W
16.24,0.0753,181.15,-0.27,98.0,0.081,0.145,0.987,0.0013,W
16.25,0.0086,-76.37,4.08,97.5,0.074,0.149,0.981,0.0051,W
16.26,0.0204,-16.71,-3.71,97.8,0.081,0.147,0.971,0.0149,W
16.27,0.0468,-231.31,8.75,97.5,0.084,0.149,0.976,0.0094,W
16.28,-0.011,-43.39,-6.5,97.7,0.063,0.147,0.983,0.0037,W
16.29,-0.016,-137.85,2.14,97.7,0.085,0.153,0.979,0.0057,W
16.3,0.0218,-44.11,6.65,97.5,0.082,0.144,0.981,0.0053,W
16.31,-0.0123,118.22,-0.2,97.7,0.085,0.153,0.974,0.0104,W
16.32,-0.0127,-324.66,-5.57,97.7,0.068,0.153,0.972,0.0132,W
16.33,-0.0086,-4.3,2.46,97.8,0.08,0.147,0.975,0.011,W
16.34,-0.03,187.94,-2.68,98.1,0.084,0.147,0.977,0.0083,W
16.35,-0.0167,34.95,-1.66,97.7,0.081,0.159,0.975,0.0089,W
16.36,0.0016,371.07,-2.15,97.7,0.087,0.148,0.978,0.0073,W
16.37,-0.0028,-26.12,-10.32,98.0,0.078,0.151,0.97,0.0157,W
16.38,0.072,-116.58,-6.78,97.7,0.083,0.148,0.983,0.0024,W
16.39,0.0906,106.64,1.65,97.8,0.077,0.142,0.971,0.0157,W
16.4,0.1117,-201.96,11.33,97.5,0.081,0.147,0.979,0.0067,W
16.41,0.1252,-144.17,-9.98,98.0,0.077,0.146,0.987,0.0003,W
16.42,0.0755,51.52,1.71,97.9,0.085,0.151,0.976,0.0086,W
16.43,0.0689,-113.2,2.03,97.4,0.082,0.152,0.984,0.0012,W
16.44,0.0193,-91.86,-6.3,97.9,0.081,0.158,0.991,0.007,W
16.45,0.0086,-162.7,0.92,97.9,0.076,0.146,0.984,0.0026,W
16.46,-0.0311,16.55,2.73,97.9,0.08,0.154,0.98,0.0048,W
16.47,-0.0641,45.18,-0.66,97.8,0.081,0.149,0.987,0.0011,W
16.48,-0.0198,-35.68,10.97,97.5,0.076,0.151,0.976,0.0099,W
16.49,0.0188,98.38,0.3,97.9,0.081,0.15,0.979,0.0059,W
16.5,-0.0281,-65.54,4.66,97.8,0.08,0.149,0.982,0.0031,W
16.51,-0.0964,69.45,9.92,97.6,0.084,0.149,0.983,0.0018,W
16.52,-0.1352,87.82,-3.33,97.7,0.092,0.153,0.988,0.0042,W
16.53,-0.0781,78.8,-8.69,97.6,0.077,0.154,0.984,0.0006,W
16.54,0.2359,145.33,-6.77,97.7,0.082,0.148,0.98,0.0058,W
16.55,0.7057,-37.91,-11.17,97.8,0.076,0.146,0.979,0.0074,W
16.56,1.1796,-51.13,-5.25,97.6,0.076,0.15,0.987,0.001,W
16.57,1.1284,-5.41,0.25,97.9,0.077,0.151,0.973,0.0124,W
16.58,0.6864,-273.45,4.23,97.7,0.074,0.145,0.972,0.0146,W
16.59,0.1914,145.83,5.85,97.7,0.074,0.153,0.977,0.0082,W
16.6,-0.1599,-105.36,1.56,97.6,0.075,0.157,0.978,0.0066,W
16.61,-0.2983,-82.55,6.27,97.8,0.084,0.15,0.977,0.0085,W
16.62,-0.3251,-45.05,-10.34,97.5,0.079,0.141,0.983,0.0034,W
16.63,-0.2037,173.33,3.35,97.6,0.077,0.148,0.994,0.0078,W
16.64,-0.1166,-102.49,-8.72,97.8,0.086,0.159,0.989,0.0055,W
16.65,-0.0533,218.77,3.93,97.6,0.081,0.149,0.983,0.0022,W
16.66,-0.0377,-28.32,6.31,98.0,0.084,0.149,0.975,0.0098,W
16.67,-0.0558,9.82,-5.13,97.9,0.087,0.148,0.98,0.0054,W
16.68,-0.0212,10.56,-1.35,98.0,0.083,0.146,0.977,0.0087,W
16.69,0.0007,-112.3,4.19,97.9,0.076,0.149,0.985,0.0009,W
16.7,0.02,135.31,-10.73,97.7,0.073,0.154,0.973,0.0124,W
16.71,0.042,208.02,3.6,97.9,0.085,0.149,0.976,0.0092,W
16.72,0.0781,85.1,1.18,97.6,0.085,0.154,0.989,0.0047,W
16.73,0.1135,-34.6,9.09,97.4,0.083,0.157,0.978,0.0058,W
16.74,0.1501,21.12,-11.68,97.7,0.079,0.139,0.986,0.0009,W
16.75,0.238,45.96,-5.43,97.7,0.078,0.151,0.982,0.004,W
16.76,0.2653,-212.82,1.4,97.8,0.068,0.153,0.978,0.0079,W
16.77,0.2728,111.46,6.35,97.6,0.082,0.141,0.984,0.003,W
16.78,0.2865,106.02,-5.74,97.7,0.081,0.139,0.98,0.0068,W
16.79,0.3246,71.52,0.73,97.9,0.09,0.153,0.992,0.008,W
16.8,0.2751,114.59,11.06,97.7,0.076,0.149,0.978,0.0079,W
16.81,0.2572,208.76,-3.96,97.6,0.077,0.153,0.98,0.0049,W
16.82,0.1836,-265.12,-9.49,97.8,0.083,0.146,0.972,0.0137,W
16.83,0.142,24.42,-7.21,97.8,0.085,0.151,0.976,0.0091,W
16.84,0.1622,93.14,-0.85,97.8,0.081,0.152,0.981,0.0037,W
16.85,0.0944,-88.23,-6.92,97.7,0.076,0.151,0.982,0.004,W
16.86,0.0828,-171.34,4.77,97.8,0.087,0.156,0.984,0.0003,W
16.87,-0.0183,-171.89,-2.31,97.9,0.077,0.157,0.98,0.0043,W
16.88,-0.0111,-34.09,2.39,97.8,0.078,0.146,0.978,0.008,W
16.89,-0.032,-128.71,11.13,97.8,0.085,0.15,0.97,0.0145,W
16.9,-0.0587,25.73,-1.02,97.7,0.083,0.149,0.981,0.0045,W
16.91,-0.0534,-64.91,1.67,97.9,0.076,0.152,0.984,0.0018,W
16.92,-0.0406,-111.82,5.55,97.9,0.078,0.145,0.984,0.0025,W
16.93,-0.0196,-71.52,1.6,97.5,0.084,0.149,0.981,0.0041,W
16.94,-0.0421,-238.26,-2.98,97.8,0.078,0.153,0.979,0.0063,W
16.95,-0.091,247.07,-8.42,98.0,0.086,0.152,0.984,0.0007,W
16.96,-0.0507,179.46,4.58,97.4,0.08,0.152,0.985,0.0007,W
16.97,-0.0265,25.64,-6.66,97.7,0.081,0.149,0.978,0.0069,W
16.98,0.0104,-91.58,12.61,97.9,0.076,0.144,0.979,0.008,W
16.99,-0.0374,88.87,-6.41,97.9,0.077,0.138,0.982,0.0053,W
17.0,-0.0015,-42.58,3.98,98.0,0.076,0.143,0.971,0.0156,W
17.01,0.0291,-166.32,-1.27,97.9,0.074,0.15,0.975,0.0112,W
17.02,0.127,-78.56,15.25,97.7,0.071,0.157,0.987,0.0022,W
17.03,0.0992,156.67,-3.93,97.9,0.079,0.153,0.982,0.0034,W
17.04,0.0984,-138.88,6.15,97.7,0.075,0.157,0.985,0.0007,W
17.05,0.0673,146.59,4.22,97.7,0.077,0.139,0.984,0.0037,W
17.06,0.0306,130.56,-0.47,97.9,0.075,0.146,0.977,0.009,W
17.07,-0.0078,-118.83,-1.99,97.7,0.075,0.15,0.971,0.0144,W
17.08,-0.0418,261.53,5.65,97.8,0.09,0.147,0.974,0.0106,W
17.09,-0.0655,-21.16,0.32,98.0,0.08,0.151,0.988,0.0031,W
17.1,-0.0452,14.45,3.8,97.9,0.073,0.146,0.985,0.0018,W
17.11,-0.0671,-34.96,0.21,97.4,0.077,0.156,0.97,0.0142,W
17.12,-0.0769,133.17,-1.51,97.8,0.077,0.147,0.984,0.0019,W
17.13,-0.1048,76.94,-5.25,97.6,0.091,0.158,0.989,0.0057,W
17.14,-0.1233,-208.84,3.14,97.9,0.083,0.148,0.989,0.0032,W
17.15,-0.1922,-214.29,-3.01,97.5,0.071,0.145,0.971,0.0157,W
17.16,0.0148,-16.56,-1.36,97.8,0.08,0.153,0.973,0.0114,W
17.17,0.4469,-51.76,-0.36,98.1,0.079,0.153,0.972,0.0133,W
17.18,0.9326,-83.98,5.3,97.9,0.08,0.149,0.973,0.0119,W
17.19,1.2156,102.07,-4.54,97.7,0.083,0.159,0.974,0.0098,W
17.2,0.9662,-197.0,4.1,97.6,0.098,0.146,0.983,0.0012,W
17.21,0.4157,9.21,0.72,98.0,0.081,0.147,0.98,0.0056,W
17.22,0.0263,173.46,-2.32,97.9,0.086,0.149,0.979,0.0063,W
17.23,-0.2208,-52.24,-3.99,97.7,0.072,0.149,0.979,0.0067,W
17.24,-0.3599,82.3,-2.15,97.7,0.083,0.157,0.97,0.0135,W
17.25,-0.275,-3.98,-1.82,97.8,0.082,0.153,0.982,0.0031,W
17.26,-0.1456,247.18,1.46,97.5,0.078,0.154,0.974,0.0109,W
17.27,-0.0458,-263.7,-10.11,97.7,0.08,0.153,0.982,0.0031,W
17.28,-0.0458,-2.81,-2.38,98.1,0.076,0.147,0.989,0.0029,W
17.29,-0.0567,10.79,8.52,97.7,0.086,0.15,0.977,0.0083,W
17.3,-0.0702,107.39,-3.59,97.9,0.083,0.151,0.98,0.0049,W
17.31,-0.0385,-44.37,-0.65,97.7,0.075,0.145,0.989,0.0021,W
17.32,-0.0231,-316.97,1.68,97.9,0.078,0.152,0.979,0.006,W
17.33,0.0409,134.73,-1.98,97.7,0.084,0.153,0.978,0.0065,W
17.34,0.0792,25.82,-0.63,97.7,0.085,0.142,0.988,0.0017,W
17.35,0.0916,225.2,4.68,97.6,0.088,0.155,0.988,0.004,W
17.36,0.1334,-153.55,3.39,97.8,0.071,0.145,0.973,0.0138,W
17.37,0.2229,-70.75,0.37,97.9,0.084,0.151,0.982,0.0025,W
17.38,0.2765,23.83,2.99,97.8,0.09,0.146,0.982,0.0028,W
17.39,0.2747,104.56,0.26,97.7,0.077,0.156,0.981,0.0034,W
17.4,0.3146,-205.84,-9.5,97.8,0.093,0.147,0.987,0.0022,W
17.41,0.2814,-161.62,8.21,97.5,0.081,0.151,0.98,0.0051,W
17.42,0.2888,-212.4,-2.32,97.8,0.077,0.146,0.989,0.0025,W
17.43,0.301,177.41,3.81,97.8,0.079,0.145,0.961,0.0251,W
17.44,0.2465,198.08,10.45,98.0,0.075,0.144,0.984,0.0023,W
17.45,0.2339,-23.84,0.54,97.8,0.079,0.145,0.978,0.0078,W
17.46,0.1492,89.73,0.64,97.6,0.084,0.144,0.981,0.0046,W
17.47,0.1195,210.03,-1.67,97.9,0.076,0.155,0.994,0.0086,W
17.48,0.0461,198.53,-4.14,97.7,0.079,0.147,0.975,0.0109,W
17.49,0.0565,91.52,-2.59,97.6,0.079,0.151,0.979,0.0067,W
17.5,0.0625,-140.14,5.9,97.7,0.075,0.152,0.973,0.0125,W
17.51,0.0226,77.84,3.79,97.9,0.083,0.15,0.982,0.0027,W
17.52,-0.0252,-39.33,-1.56,97.8,0.074,0.151,0.986,0.0006,W
17.53,-0.0097,-140.26,1.91,97.8,0.092,0.146,0.988,0.0028,W
17.54,-0.0374,43.89,8.16,97.8,0.082,0.153,0.98,0.0051,W
17.55,0.0072,-133.94,1.03,97.9,0.082,0.151,0.984,0.0007,W
17.56,-0.0038,46.15,4.24,97.5,0.078,0.152,0.985,0.0006,W
17.57,-0.0097,-13.62,-4.48,98.0,0.075,0.144,0.981,0.0059,W
17.58,-0.0441,56.73,-4.23,98.0,0.071,0.152,0.983,0.0031,W
17.59,-0.0338,30.58,-1.29,98.0,0.089,0.144,0.987,0.0019,W
17.6,-0.0382,84.17,5.52,97.8,0.084,0.148,0.983,0.0026,W
17.61,0.0148,-0.62,1.33,97.9,0.079,0.15,0.985,0.0004,W
17.62,0.0276,-87.08,5.17,97.8,0.076,0.157,0.987,0.0025,W
17.63,0.0677,-25.17,11.46,97.5,0.09,0.142,0.978,0.0076,W
17.64,0.0918,-47.57,3.77,97.7,0.082,0.151,0.972,0.013,W
17.65,0.149,-60.37,14.55,97.7,0.073,0.155,0.986,0.0004,W
17.66,0.1493,-36.88,-1.3,97.7,0.08,0.149,0.987,0.0015,W
17.67,0.0934,53.96,1.0,98.0,0.073,0.156,0.98,0.0051,W
17.68,0.0905,-18.01,6.27,98.1,0.087,0.149,0.971,0.0138,W
17.69,0.0295,7.23,5.89,97.8,0.082,0.157,0.976,0.0078,W
17.7,-0.003,14.14,-0.43,97.4,0.077,0.146,0.987,0.0011,W
17.71,-0.0174,-81.06,1.62,97.6,0.083,0.145,0.984,0.0016,W
17.72,-0.0201,30.51,-2.63,98.0,0.078,0.144,0.981,0.0051,W
17.73,-0.044,40.22,0.85,97.7,0.074,0.156,0.974,0.011,W
17.74,-0.0155,0.91,0.19,97.7,0.073,0.151,0.976,0.0102,W
17.75,0.0255,32.63,5.27,97.9,0.077,0.147,0.976,0.0103,W
17.76,-0.0544,-86.19,-7.07,97.7,0.075,0.155,0.973,0.0123,W
17.77,-0.1424,-1.83,-0.02,98.0,0.07,0.142,0.973,0.014,W
17.78,-0.0335,-16.18,-0.6,97.8,0.088,0.15,0.973,0.0111,W
17.79,0.3392,-31.23,-3.39,97.8,0.085,0.156,0.981,0.0033,W
17.8,0.8151,-13.17,-0.29,97.7,0.082,0.153,0.982,0.0024,W
17.81,1.2232,20.72,1.82,97.5,0.084,0.154,0.981,0.0038,W
17.82,1.1497,-3.05,4.78,97.9,0.078,0.147,0.976,0.0101,W
17.83,0.6762,-91.84,-8.56,98.1,0.068,0.151,0.983,0.0036,W
17.84,0.2056,111.27,3.4,97.7,0.079,0.16,0.982,0.0019,W
17.85,-0.1434,-54.51,1.16,97.6,0.066,0.152,0.99,0.0035,W
17.86,-0.2672,-58.75,6.71,98.0,0.082,0.152,0.981,0.0044,W
17.87,-0.301,-20.12,-7.63,97.8,0.085,0.155,0.978,0.0057,W
17.88,-0.1627,8.74,0.07,97.9,0.076,0.157,0.98,0.0051,W
17.89,-0.0506,-50.14,6.35,97.9,0.07,0.152,0.966,0.0195,W
17.9,0.0091,8.14,4.17,97.9,0.075,0.146,0.977,0.0093,W
17.91,0.042,69.52,0.0,98.1,0.084,0.149,0.98,0.0056,W
17.92,0.0594,81.1,1.72,97.8,0.08,0.15,0.981,0.004,W
17.93,0.0177,-9.44,0.8,97.8,0.082,0.152,0.98,0.0049,W
17.94,0.0428,-46.93,-1.86,97.8,0.084,0.155,0.986,0.0021,W
17.95,0.1042,-23.51,4.67,98.0,0.085,0.15,0.977,0.0079,W
17.96,0.1594,91.56,-1.96,97.8,0.077,0.154,0.989,0.004,W
17.97,0.1385,-117.52,2.38,97.8,0.085,0.146,0.985,0.0008,W
17.98,0.1914,10.4,-1.18,97.6,0.082,0.159,0.986,0.0021,W
17.99,0.2142,57.45,0.68,97.8,0.081,0.139,0.982,0.0051,W
18.0,0.271,-8.31,2.67,98.0,0.083,0.148,0.983,0.0021,W
18.01,0.3379,44.36,-3.04,97.7,0.074,0.152,0.971,0.0142,W
18.02,0.3497,25.67,-3.9,97.9,0.086,0.155,0.984,0.0002,W
18.03,0.3622,-33.67,10.91,97.9,0.071,0.154,0.988,0.0025,W
18.04,0.3126,78.85,-0.87,97.6,0.091,0.15,0.983,0.0017,W
18.05,0.3815,-32.98,-5.3,97.6,0.084,0.156,0.972,0.0122,W
18.06,0.2973,-22.73,6.23,98.1,0.086,0.148,0.981,0.0044,W
18.07,0.3014,23.88,3.69,97.9,0.085,0.143,0.985,0.0011,W
18.08,0.2623,-12.67,-5.24,97.9,0.084,0.142,0.981,0.0053,W
18.09,0.2169,-36.48,0.19,97.9,0.083,0.152,0.987,0.0024,W
18.1,0.1262,-101.6,-4.06,98.2,0.073,0.146,0.979,0.0079,W
18.11,0.1001,0.82,6.0,97.9,0.079,0.145,0.971,0.0156,W
18.12,0.0947,-40.36,-0.78,97.6,0.085,0.151,0.977,0.0075,W
18.13,0.0207,-99.02,-4.85,98.1,0.079,0.142,0.984,0.003,W
18.14,0.0458,12.96,2.25,98.0,0.083,0.15,0.983,0.0026,W
18.15,0.072,-21.41,-0.1,97.5,0.079,0.145,0.98,0.0064,W
18.16,0.0406,-1.77,-2.44,97.8,0.081,0.149,0.976,0.009,W
18.17,0.0099,-19.25,-2.1,97.7,0.082,0.153,0.986,0.0009,W
18.18,0.0172,-114.36,-1.54,97.8,0.073,0.149,0.993,0.0072,W
18.19,0.034,6.37,-1.77,98.1,0.08,0.142,0.98,0.0068,W
18.2,0.0446,-13.66,-14.22,97.8,0.084,0.156,0.979,0.0052,W
18.21,0.0291,37.94,5.84,98.2,0.089,0.154,0.974,0.0096,W
18.22,0.0144,-30.63,-0.38,97.6,0.077,0.154,0.982,0.0027,W
18.23,0.0959,-126.22,1.62,98.0,0.073,0.148,0.983,0.0028,W
18.24,0.0667,34.67,-1.2,97.9,0.084,0.157,0.98,0.0035,W
18.25,0.0653,23.07,3.65,97.8,0.081,0.142,0.985,0.0019,W
18.26,0.0778,53.57,-6.44,97.7,0.084,0.152,0.983,0.0014,W
18.27,0.141,26.29,0.29,98.1,0.078,0.148,0.982,0.0039,W
18.28,0.2216,-32.41,3.14,97.7,0.074,0.146,0.981,0.0053,W
18.29,0.1571,-29.04,11.11,97.8,0.078,0.145,0.979,0.0074,W
18.3,0.1248,-7.98,4.1,98.0,0.081,0.151,0.975,0.0102,W
18.31,0.1402,59.94,0.51,97.7,0.082,0.144,0.982,0.0038,W
18.32,0.1166,-14.99,5.15,98.0,0.079,0.155,0.981,0.004,W
18.33,0.0721,-22.57,5.35,97.9,0.084,0.149,0.986,0.001,W
18.34,0.0726,49.25,-10.05,98.0,0.08,0.143,0.984,0.0021,W
18.35,0.0468,38.73,0.44,97.9,0.071,0.152,0.987,0.0007,W
18.36,0.0343,34.55,-3.27,97.7,0.082,0.151,0.985,0.0,W
18.37,0.0527,43.88,6.66,97.9,0.079,0.151,0.977,0.0077,W
18.38,0.0446,-110.59,-10.28,98.0,0.087,0.14,0.984,0.002,W
18.39,-0.0018,13.26,2.39,97.8,0.075,0.144,0.976,0.0103,W
18.4,-0.0506,-16.99,-1.99,97.8,0.079,0.151,0.994,0.0085,W
18.41,-0.0211,-52.06,-2.7,97.9,0.084,0.158,0.986,0.002,W
18.42,0.2466,58.53,1.26,97.9,0.079,0.149,0.969,0.0162,W
18.43,0.7498,-101.75,-7.96,97.9,0.082,0.156,0.986,0.0016,W
18.44,1.202,33.21,6.86,97.7,0.086,0.151,0.987,0.0024,W
18.45,1.2447,49.94,-11.66,97.8,0.077,0.151,0.979,0.0063,W
18.46,0.8124,-22.19,-3.52,98.0,0.077,0.147,0.981,0.0052,W
18.47,0.3114,74.73,-9.56,97.8,0.081,0.145,0.982,0.004,W
18.48,-0.0405,38.22,-0.01,98.1,0.084,0.144,0.987,0.0013,W
18.49,-0.2299,-60.19,-3.7,98.0,0.077,0.153,0.97,0.0153,W
18.5,-0.2784,17.43,1.06,97.8,0.084,0.151,0.978,0.0067,W
18.51,-0.1288,2.37,-6.0,97.7,0.084,0.151,0.989,0.0035,W
18.52,-0.025,12.95,2.0,98.0,0.074,0.152,0.987,0.0014,W
18.53,0.0649,19.8,-8.41,98.0,0.083,0.149,0.977,0.0077,W
18.54,0.0412,-107.96,-8.49,97.8,0.09,0.145,0.977,0.0086,W
18.55,0.0742,-66.94,-0.84,97.9,0.088,0.154,0.978,0.0058,W
18.56,0.0643,57.86,-1.7,97.7,0.086,0.142,0.979,0.0069,W
18.57,0.0575,34.34,0.14,98.1,0.088,0.153,0.992,0.0074,W
18.58,0.0687,-0.67,-1.17,97.7,0.077,0.149,0.978,0.0076,W
18.59,0.1472,4.39,0.01,97.7,0.077,0.15,0.98,0.0052,W
18.6,0.1712,-25.39,-9.16,97.6,0.075,0.151,0.99,0.0038,W
18.61,0.193,-15.29,12.06,98.1,0.072,0.153,0.989,0.0034,W
18.62,0.2529,79.45,7.34,98.0,0.08,0.146,0.971,0.0148,W
18.63,0.3261,-50.03,-2.31,97.8,0.078,0.154,0.977,0.0079,W
18.64,0.3642,25.76,-3.38,98.0,0.077,0.149,0.977,0.0089,W
18.65,0.3668,-34.68,1.23,97.9,0.075,0.155,0.982,0.003,W
18.66,0.4124,-52.99,1.48,97.7,0.075,0.158,0.979,0.0058,W
18.67,0.4222,-45.68,-3.54,98.1,0.076,0.151,0.99,0.0043,W
18.68,0.3686,3.04,3.49,98.0,0.082,0.154,0.984,0.0007,W
18.69,0.3243,-14.41,0.58,97.8,0.077,0.15,0.982,0.0031,W
18.7,0.3069,47.32,0.32,97.9,0.078,0.161,0.992,0.008,W
18.71,0.249,16.99,3.85,98.1,0.077,0.143,0.981,0.0053,W
18.72,0.2236,7.45,7.23,97.9,0.08,0.142,0.983,0.0034,W
18.73,0.1825,-31.69,0.78,97.8,0.083,0.148,0.988,0.0029,W
18.74,0.1581,-80.5,4.63,98.0,0.088,0.151,0.976,0.0083,W
18.75,0.0824,-72.54,3.2,97.9,0.093,0.147,0.978,0.0065,W
18.76,0.1147,-31.71,-8.77,97.9,0.085,0.163,0.98,0.0028,W
18.77,0.0715,-104.45,-0.47,97.7,0.077,0.155,0.979,0.0054,W
18.78,0.0754,74.99,0.04,97.9,0.081,0.152,0.977,0.0084,W
18.79,0.0251,-47.53,-10.45,98.0,0.072,0.148,0.977,0.0093,W
18.8,0.0619,-74.18,-0.63,98.0,0.078,0.145,0.977,0.009,W
18.81,0.071,114.84,-0.59,97.6,0.084,0.163,0.974,0.0094,W
18.82,0.0822,-5.59,-0.51,97.9,0.084,0.15,0.981,0.0042,W
18.83,0.0319,55.94,-1.08,97.7,0.076,0.147,0.982,0.004,W
18.84,0.0441,12.68,-2.43,98.0,0.077,0.154,0.981,0.0042,W
18.85,0.0347,47.12,-11.99,97.6,0.067,0.141,0.982,0.0054,W
18.86,0.0962,9.84,-0.35,97.7,0.086,0.152,0.979,0.0053,W
18.87,0.0495,-23.0,-5.86,97.9,0.083,0.142,0.977,0.0089,W
18.88,0.1208,-76.25,1.6,98.1,0.08,0.151,0.977,0.0081,W
18.89,0.1363,-75.86,-4.5,98.3,0.076,0.143,0.978,0.0084,W
18.9,0.1859,-44.35,6.23,97.5,0.083,0.15,0.982,0.0029,W
18.91,0.2275,28.99,8.75,97.9,0.079,0.152,0.981,0.0043,W
18.92,0.1921,-48.71,-8.47,97.7,0.085,0.149,0.98,0.0053,W
18.93,0.1568,-97.18,-6.06,97.7,0.073,0.147,0.981,0.0054,W
18.94,0.1246,-52.66,-0.34,98.0,0.079,0.151,0.977,0.0079,W
18.95,0.1432,0.71,3.09,97.7,0.08,0.149,0.978,0.0071,W
18.96,0.0397,51.11,0.84,98.1,0.084,0.145,0.98,0.0061,W
18.97,0.0694,2.68,-5.83,97.9,0.084,0.149,0.98,0.0049,W
18.98,0.0563,-48.77,0.87,98.0,0.071,0.156,0.982,0.003,W
18.99,0.0362,-53.22,-2.32,98.1,0.081,0.148,0.979,0.0069,W
19.0,0.0317,-26.62,10.27,97.8,0.08,0.154,0.981,0.0041,W
19.01,0.0471,9.11,0.51,97.9,0.077,0.151,0.983,0.0023,W
19.02,-0.0106,5.91,1.9,97.8,0.085,0.154,0.972,0.0126,W
19.03,-0.0974,-25.05,-4.53,98.3,0.075,0.146,0.985,0.0019,W
19.04,0.0515,-81.67,-2.44,98.0,0.077,0.145,0.985,0.0016,W
19.05,0.448,85.37,3.47,98.0,0.086,0.145,0.976,0.0093,W
19.06,0.9492,-4.43,4.6,97.9,0.077,0.154,0.982,0.0033,W
19.07,1.293,26.24,-8.62,97.7,0.074,0.149,0.98,0.0063,W
19.08,1.1412,42.07,-4.53,97.7,0.073,0.144,0.982,0.005,W
19.09,0.6318,49.84,9.23,97.7,0.08,0.141,0.98,0.0066,W
19.1,0.1606,-46.06,-3.98,97.8,0.08,0.165,0.988,0.0043,W
19.11,-0.1207,-9.59,-1.17,98.0,0.075,0.15,0.968,0.0178,W
19.12,-0.2733,-10.19,-3.33,97.9,0.078,0.15,0.982,0.0035,W
19.13,-0.2336,36.47,3.52,98.1,0.083,0.159,0.976,0.0078,W
19.14,-0.081,-10.63,5.56,98.1,0.086,0.134,0.984,0.0033,W
19.15,0.0153,-109.29,-4.68,97.9,0.082,0.156,0.978,0.0063,W
19.16,0.036,11.91,8.24,98.0,0.081,0.152,0.968,0.0172,W
19.17,0.0176,-22.38,-2.22,98.0,0.083,0.162,0.98,0.0038,W
19.18,0.04,-44.52,1.08,97.9,0.086,0.155,0.981,0.0028,W
19.19,0.0582,10.39,-6.35,97.8,0.076,0.153,0.989,0.0034,W
19.2,0.0553,82.32,-0.52,98.2,0.084,0.149,0.971,0.0142,W
19.21,0.1323,-1.8,2.86,97.9,0.075,0.149,0.985,0.0015,W
19.22,0.1039,-40.25,3.83,98.0,0.078,0.15,0.987,0.001,W
19.23,0.1815,-35.22,2.31,97.8,0.083,0.149,0.982,0.0036,W
19.24,0.1871,33.59,-7.86,98.2,0.085,0.15,0.986,0.0011,W
19.25,0.2432,9.53,7.39,97.6,0.082,0.156,0.975,0.0089,W
19.26,0.3332,68.98,-13.65,97.9,0.078,0.153,0.97,0.0145,W
19.27,0.3235,-21.69,-9.01,98.1,0.079,0.151,0.977,0.0077,W
19.28,0.3669,14.59,-5.57,98.0,0.084,0.148,0.981,0.0043,W
19.29,0.4,27.33,-6.01,97.9,0.083,0.151,0.985,0.0006,W
19.3,0.3838,16.21,7.48,97.8,0.071,0.143,0.975,0.0122,W
19.31,0.3904,-15.39,-2.73,98.0,0.088,0.152,0.974,0.0098,W
19.32,0.3224,31.38,-3.13,97.9,0.073,0.141,0.979,0.0079,W
19.33,0.2393,-91.44,6.4,98.1,0.079,0.158,0.973,0.0111,W
19.34,0.2115,-39.27,2.93,97.8,0.08,0.144,0.987,0.0007,W
19.35,0.2073,29.83,-1.05,97.7,0.081,0.15,0.98,0.0057,W
19.36,0.1435,70.55,-1.54,98.1,0.074,0.147,0.979,0.0068,W
19.37,0.1038,-9.39,-4.31,97.9,0.081,0.146,0.974,0.0113,W
19.38,0.0989,33.26,5.36,98.0,0.079,0.153,0.984,0.0015,W
19.39,0.0682,-21.29,-8.25,98.0,0.073,0.15,0.98,0.0057,W
19.4,0.0467,39.32,0.55,97.6,0.083,0.156,0.989,0.0049,W
19.41,0.0151,102.46,-6.34,97.9,0.087,0.151,0.984,0.0011,W
19.42,0.0372,29.83,7.51,97.7,0.074,0.147,0.975,0.0107,W
19.43,0.008,13.79,3.01,97.9,0.084,0.152,0.974,0.0111,W
19.44,0.0339,29.67,5.52,97.9,0.087,0.146,0.968,0.0172,W
19.45,0.0003,-52.73,0.02,98.2,0.075,0.154,0.974,0.0113,W
19.46,0.0161,-28.4,12.5,97.9,0.084,0.148,0.983,0.002,W
19.47,0.0102,-41.37,-8.65,98.2,0.074,0.147,0.979,0.0076,W
19.48,0.057,13.39,-6.44,97.7,0.07,0.153,0.971,0.0145,W
19.49,0.0585,39.99,3.48,97.9,0.083,0.152,0.984,0.0007,W
19.5,0.0846,-25.8,7.78,98.3,0.079,0.142,0.971,0.016,W
19.51,0.117,1.33,-4.33,98.1,0.082,0.15,0.985,0.0,W
19.52,0.1501,27.86,2.98,98.0,0.079,0.135,0.972,0.0155,W
19.53,0.1672,-94.22,-1.41,97.7,0.079,0.154,0.988,0.0029,W
19.54,0.1704,9.47,9.05,97.8,0.084,0.142,0.984,0.0023,W
19.55,0.1226,4.48,2.9,98.0,0.073,0.15,0.975,0.0111,W
19.56,0.0903,-23.84,5.29,98.0,0.086,0.159,0.98,0.0034,W
19.57,0.0572,-86.26,3.65,97.9,0.073,0.143,0.984,0.0027,W
19.58,0.0505,-71.14,0.47,98.0,0.091,0.145,0.982,0.0032,W
19.59,0.0269,-62.83,-5.95,97.8,0.075,0.145,0.977,0.0094,W
19.6,0.0301,-79.93,3.44,98.1,0.08,0.147,0.985,0.0005,W
19.61,-0.0096,-52.79,-0.08,97.7,0.078,0.141,0.979,0.008,W
19.62,-0.0099,34.51,-0.84,98.2,0.082,0.149,0.979,0.0063,W
19.63,-0.0052,-10.44,-7.39,98.0,0.082,0.151,0.984,0.0008,W
19.64,-0.0395,-17.75,-3.28,98.2,0.075,0.147,0.975,0.0107,W
19.65,-0.1131,-1.52,4.37,97.9,0.085,0.149,0.991,0.0061,W
19.66,0.0024,54.62,-6.49,97.8,0.073,0.151,0.978,0.0073,W
19.67,0.2991,-1.09,3.84,98.0,0.076,0.143,0.973,0.0135,W
19.68,0.8078,5.28,6.03,97.9,0.079,0.15,0.976,0.0092,W
19.69,1.2291,-48.02,6.27,97.9,0.084,0.147,0.978,0.007,W
19.7,1.1109,-27.32,5.18,98.1,0.078,0.156,0.983,0.0017,W
19.71,0.6679,13.81,1.69,97.7,0.086,0.152,0.982,0.0027,W
19.72,0.1873,17.13,2.27,98.0,0.067,0.154,0.98,0.0058,W
19.73,-0.1597,-34.69,1.16,97.8,0.071,0.146,0.977,0.0093,W
19.74,-0.2717,25.5,-7.9,98.1,0.091,0.141,0.98,0.0058,W
19.75,-0.2932,8.73,-1.18,97.9,0.078,0.151,0.978,0.0068,W
19.76,-0.1884,23.48,3.95,97.7,0.083,0.145,0.979,0.0068,W
19.77,-0.0574,-15.6,2.65,97.7,0.077,0.141,0.983,0.0044,W
19.78,-0.0042,24.48,-3.98,97.9,0.081,0.151,0.979,0.0063,W
19.79,-0.0374,-29.83,0.98,98.1,0.078,0.148,0.981,0.0048,W
19.8,0.0342,17.66,2.92,98.0,0.074,0.156,0.983,0.0021,W
19.81,0.0161,-54.38,1.09,98.0,0.075,0.15,0.969,0.0169,W
19.82,0.0344,-95.9,-7.37,98.2,0.084,0.152,0.977,0.008,W
19.83,0.0402,36.74,6.35,98.1,0.085,0.145,0.98,0.0056,W
19.84,0.0822,-12.13,-3.85,98.1,0.084,0.148,0.971,0.014,W
19.85,0.1248,-17.15,1.23,98.1,0.076,0.15,0.979,0.0069,W
19.86,0.1788,-21.13,-7.96,97.8,0.08,0.155,0.975,0.0091,W
19.87,0.2174,-0.2,4.9,97.9,0.088,0.148,0.975,0.0095,W
19.88,0.2434,-13.07,-2.4,98.0,0.085,0.151,0.979,0.0056,W
19.89,0.2714,-39.48,-7.34,97.9,0.088,0.161,0.985,0.0014,W
19.9,0.2794,82.02,-3.43,97.9,0.081,0.157,0.979,0.0055,W
19.91,0.3216,-39.45,1.54,97.8,0.075,0.142,0.985,0.002,W
19.92,0.2907,-65.32,-1.75,97.8,0.075,0.153,0.992,0.0062,W
19.93,0.2895,37.56,2.72,97.9,0.09,0.151,0.986,0.0016,W
19.94,0.2978,55.41,1.31,98.2,0.083,0.151,0.984,0.0014,W
19.95,0.2158,25.99,-2.39,98.0,0.089,0.147,0.985,0.0005,W
19.96,0.1733,-55.03,-1.12,97.6,0.074,0.151,0.985,0.0005,W
19.97,0.149,-61.23,-0.84,98.2,0.087,0.138,0.976,0.01,W
19.98,0.0843,38.47,-2.39,98.0,0.077,0.147,0.973,0.0129,W
19.99,0.0524,30.69,9.11,98.1,0.073,0.144,0.978,0.0088,W
20.0,0.0313,81.29,10.07,98.1,0.083,0.15,0.976,0.0095,W
20.01,0.0078,32.07,-6.9,98.0,0.075,0.148,0.985,0.0015,W
20.02,-0.0382,-80.05,-2.57,97.9,0.08,0.146,0.987,0.0007,W
20.03,-0.0438,41.36,-2.11,97.8,0.078,0.156,0.981,0.0039,W
20.04,-0.0504,-48.15,-2.17,98.2,0.077,0.142,0.978,0.0091,W
20.05,-0.0386,28.53,0.05,97.8,0.089,0.15,0.983,0.0012,W
20.06,-0.0282,65.01,2.94,97.9,0.077,0.155,0.979,0.006,W
20.07,-0.0278,3.74,-1.56,98.0,0.076,0.142,0.981,0.006,W
20.08,-0.0653,98.99,0.33,97.9,0.081,0.143,0.985,0.0015,W
20.09,0.011,32.58,2.45,98.2,0.076,0.151,0.984,0.002,W
20.1,-0.0248,-12.83,4.07,98.1,0.071,0.143,0.988,0.0004,W
20.11,0.0235,15.89,-7.63,98.2,0.076,0.154,0.979,0.006,W
20.12,0.0065,-55.24,-1.81,98.0,0.071,0.15,0.983,0.0027,W
20.13,0.0577,-2.61,9.3,98.2,0.089,0.156,0.979,0.0048,W
20.14,0.0916,2.01,4.92,97.8,0.071,0.15,0.98,0.0064,W
20.15,0.0932,-50.35,2.94,97.9,0.077,0.152,0.988,0.0025,W
20.16,0.0955,75.12,8.53,97.8,0.085,0.15,0.979,0.0064,W
20.17,0.0923,17.77,-6.87,97.8,0.081,0.149,0.975,0.0108,W
20.18,0.0636,-11.83,-3.81,97.9,0.094,0.15,0.977,0.0075,W
20.19,0.0361,46.08,3.29,98.1,0.084,0.161,0.988,0.0043,W
20.2,0.0045,62.89,2.68,98.2,0.076,0.135,0.984,0.004,W
20.21,-0.0031,-37.81,-4.26,98.2,0.075,0.148,0.979,0.0066,W
20.22,-0.0306,24.02,-10.26,98.3,0.085,0.157,0.979,0.0051,W
20.23,-0.0331,-78.79,0.1,97.8,0.079,0.155,0.974,0.011,W
20.24,-0.0311,75.59,1.62,98.0,0.086,0.157,0.977,0.0065,W
20.25,-0.0674,21.51,1.85,98.0,0.081,0.147,0.973,0.0124,W
20.26,-0.0741,-51.73,0.59,98.2,0.081,0.149,0.977,0.009,W
20.27,-0.1453,13.5,3.47,97.8,0.072,0.148,0.975,0.0108,W
20.28,-0.1234,-0.79,-2.24,98.2,0.083,0.156,0.977,0.0075,W
20.29,0.1269,-30.16,-2.79,98.0,0.081,0.157,0.983,0.0011,W
20.3,0.5639,-36.46,-0.28,98.2,0.083,0.151,0.98,0.0053,W
20.31,1.0549,11.05,-2.52,97.9,0.08,0.156,0.974,0.0105,W
20.32,1.1852,-0.02,3.87,98.2,0.081,0.161,0.98,0.0035,W
20.33,0.8545,-74.81,-2.59,98.1,0.092,0.162,0.97,0.0127,W
20.34,0.3221,-73.39,-1.48,98.0,0.078,0.157,0.985,0.0004,W
20.35,-0.0557,13.14,-3.41,98.1,0.075,0.153,0.978,0.0076,W
20.36,-0.2922,-1.58,0.95,97.9,0.08,0.147,0.98,0.006,W
20.37,-0.3662,49.45,2.35,98.2,0.081,0.152,0.976,0.0091,W
20.38,-0.2391,154.34,15.13,98.1,0.074,0.148,0.974,0.0125,W
20.39,-0.1759,15.9,-5.18,98.1,0.08,0.143,0.982,0.0044,W
20.4,-0.0819,-59.42,6.75,98.1,0.083,0.154,0.975,0.0097,W
20.41,-0.0637,-48.61,1.45,98.2,0.078,0.159,0.971,0.0132,W
20.42,-0.0173,4.17,13.48,98.0,0.069,0.152,0.988,0.0022,W
20.43,-0.0193,-107.67,-5.58,97.9,0.076,0.156,0.975,0.0094,W
20.44,-0.0189,-82.4,5.97,98.1,0.071,0.152,0.986,0.0001,W
20.45,-0.0071,-46.06,-5.29,97.8,0.084,0.152,0.972,0.0129,W
20.46,0.0007,-53.02,0.04,97.8,0.073,0.159,0.98,0.0046,W
20.47,0.0741,60.2,2.54,98.3,0.092,0.151,0.976,0.0079,W
20.48,0.0951,35.2,-1.34,98.4,0.086,0.148,0.985,0.0005,W
20.49,0.1521,-66.33,-8.21,98.0,0.083,0.154,0.975,0.0093,W
20.5,0.1867,-36.93,3.41,98.3,0.082,0.149,0.981,0.004,W
20.51,0.1982,123.01,-1.46,98.0,0.083,0.147,0.982,0.0033,W
20.52,0.2511,2.58,0.32,98.2,0.073,0.151,0.984,0.0019,W
20.53,0.2793,-19.27,-10.55,98.1,0.081,0.151,0.982,0.0032,W
20.54,0.2982,-17.81,-0.53,98.1,0.078,0.152,0.985,0.0005,W
20.55,0.3054,10.33,2.11,98.3,0.082,0.145,0.978,0.0079,W
20.56,0.2846,61.34,1.67,98.0,0.081,0.14,0.978,0.0091,W
20.57,0.2238,-40.85,-1.41,98.2,0.083,0.155,0.979,0.0055,W
20.58,0.1759,-21.69,-4.75,98.1,0.084,0.155,0.977,0.0074,W
20.59,0.1153,-23.94,-5.27,97.9,0.071,0.147,0.981,0.0056,W
20.6,0.0791,-54.65,-3.5,98.0,0.081,0.149,0.98,0.0055,W
20.61,0.0287,-46.51,-0.99,98.1,0.074,0.152,0.976,0.0091,W
20.62,0.0377,-13.67,2.14,98.0,0.083,0.152,0.976,0.009,W
20.63,0.0028,41.98,1.86,98.1,0.08,0.151,0.983,0.0024,W
20.64,-0.0321,-9.77,-4.1,98.1,0.081,0.151,0.979,0.0065,W
20.65,-0.0224,-12.38,-9.28,98.0,0.087,0.15,0.977,0.0079,W
20.66,-0.0518,18.65,5.05,98.1,0.086,0.158,0.991,0.0077,W
20.67,-0.06,-42.51,-2.95,97.7,0.071,0.161,0.974,0.01,W
20.68,-0.0511,39.76,-2.71,97.9,0.084,0.153,0.976,0.0084,W
20.69,-0.0422,8.96,0.67,98.0,0.078,0.157,0.978,0.0068,W
20.7,-0.0643,0.58,-0.97,98.0,0.085,0.14,0.976,0.0105,W
20.71,-0.0784,35.15,-4.82,98.0,0.075,0.149,0.98,0.0055,W
20.72,-0.0342,18.98,2.55,98.2,0.077,0.15,0.979,0.007,W
20.73,-0.0453,3.34,12.91,98.1,0.081,0.156,0.987,0.002,W
20.74,-0.0287,-3.44,3.67,98.2,0.079,0.15,0.981,0.0044,W
20.75,0.0259,-15.28,4.9,98.1,0.085,0.154,0.983,0.0014,W
20.76,0.0688,-31.99,-7.24,97.9,0.08,0.146,0.981,0.0053,W
20.77,0.0856,57.4,-1.93,98.4,0.081,0.151,0.973,0.0119,W
20.78,0.0873,-97.91,-7.08,98.1,0.082,0.154,0.981,0.0034,W
20.79,0.0849,5.31,-1.73,98.0,0.076,0.149,0.978,0.0083,W
20.8,0.0553,16.44,6.19,98.0,0.081,0.151,0.98,0.0054,W
20.81,0.0401,-55.11,-3.41,98.0,0.085,0.15,0.982,0.0033,W
20.82,0.0471,24.47,5.51,98.0,0.082,0.146,0.98,0.0054,W
20.83,-0.0068,4.93,-5.78,97.9,0.093,0.145,0.976,0.0089,W
20.84,-0.0508,17.16,6.61,98.1,0.081,0.158,0.992,0.0076,W
20.85,-0.0358,24.13,-6.24,98.1,0.07,0.145,0.982,0.0052,W
20.86,-0.0448,28.94,-5.28,97.9,0.078,0.159,0.98,0.0045,W
20.87,-0.0563,59.27,-1.33,97.8,0.073,0.148,0.978,0.0081,W
20.88,-0.0433,75.94,6.32,98.0,0.086,0.154,0.974,0.0101,W
20.89,-0.1029,-0.91,-4.03,98.0,0.08,0.15,0.986,0.0007,W
20.9,-0.1543,-4.7,14.5,98.2,0.076,0.149,0.988,0.0022,W
20.91,-0.0301,-34.14,-0.47,98.0,0.08,0.15,0.986,0.0003,W
20.92,0.2717,-10.69,-3.1,97.9,0.084,0.153,0.981,0.004,W
20.93,0.785,56.34,-8.5,98.3,0.072,0.144,0.972,0.0144,W
20.94,1.1466,-28.85,2.92,98.3,0.083,0.144,0.982,0.0039,W
20.95,1.1044,-29.33,-1.96,98.1,0.075,0.159,0.983,0.0012,W
20.96,0.6544,-56.71,0.69,98.0,0.079,0.154,0.98,0.0051,W
20.97,0.1529,-31.22,-6.5,98.3,0.082,0.15,0.989,0.0037,W
20.98,-0.1793,-12.62,5.25,98.1,0.085,0.148,0.978,0.0071,W
20.99,-0.2949,10.8,-7.9,98.3,0.077,0.154,0.985,0.0002,W
21.0,-0.343,-31.56,4.43,98.2,0.073,0.145,0.972,0.0146,W
21.01,-0.1936,9.55,-4.95,98.0,0.084,0.145,0.981,0.0047,W
21.02,-0.0969,62.93,-1.9,98.1,0.083,0.146,0.977,0.0086,W
21.03,-0.0763,2.72,3.18,98.1,0.078,0.152,0.984,0.001,W
21.04,-0.0248,4.11,1.7,98.1,0.084,0.145,0.975,0.0107,W
21.05,-0.0098,55.96,3.51,98.0,0.082,0.152,0.986,0.0006,W
21.06,0.0172,61.9,-2.04,98.2,0.077,0.162,0.977,0.0063,W
21.07,0.0004,-32.03,0.56,98.2,0.072,0.151,0.983,0.0034,W
21.08,0.0213,38.86,-1.83,98.0,0.086,0.158,0.975,0.0082,W
21.09,0.075,-96.49,3.84,98.2,0.069,0.157,0.988,0.0031,W
21.1,0.1308,-60.64,1.25,98.0,0.087,0.149,0.982,0.0027,W
21.11,0.1382,7.14,-4.56,98.4,0.082,0.148,0.982,0.0034,W
21.12,0.1744,74.02,2.16,98.2,0.077,0.149,0.985,0.0011,W
21.13,0.2493,49.99,0.53,97.9,0.073,0.147,0.987,0.0003,W
21.14,0.2657,52.87,-2.41,98.5,0.079,0.159,0.978,0.0056,W
21.15,0.3175,-44.61,-1.39,98.2,0.076,0.142,0.975,0.0117,W
21.16,0.3181,3.37,-7.79,98.0,0.078,0.155,0.977,0.0073,W
21.17,0.2994,-117.15,-3.32,97.9,0.084,0.149,0.974,0.0111,W
21.18,0.3201,12.8,2.61,98.2,0.088,0.15,0.977,0.0072,W
21.19,0.2599,24.71,-4.29,98.0,0.085,0.153,0.98,0.0042,W
21.2,0.2101,0.29,0.85,98.1,0.075,0.156,0.988,0.0032,W
21.21,0.2129,16.95,2.52,98.1,0.078,0.149,0.984,0.0019,W
21.22,0.137,-32.08,-1.13,98.1,0.083,0.152,0.984,0.0013,W
21.23,0.0872,14.43,-3.99,98.4,0.078,0.147,0.983,0.0029,W
21.24,0.1049,17.63,-2.52,98.3,0.083,0.148,0.974,0.0116,W
21.25,0.0116,46.32,-3.3,98.2,0.08,0.15,0.979,0.0067,W
21.26,0.0501,54.93,2.81,98.2,0.076,0.148,0.979,0.007,W
21.27,0.0265,11.2,-0.97,98.1,0.078,0.149,0.975,0.0109,W
21.28,0.0262,74.64,-9.54,98.0,0.077,0.156,0.98,0.0048,W
21.29,-0.0146,-53.15,-1.84,98.1,0.083,0.14,0.98,0.0064,W
21.3,-0.0169,-19.67,1.85,98.3,0.073,0.164,0.975,0.0086,W
21.31,-0.0063,-5.9,0.58,98.3,0.083,0.158,0.984,0.0001,W
21.32,0.0081,-22.86,2.04,98.2,0.081,0.159,0.986,0.002,W
21.33,-0.0101,-16.11,-1.98,98.0,0.083,0.149,0.984,0.0014,W
21.34,-0.0287,0.51,-6.79,98.1,0.084,0.151,0.983,0.0022,W
21.35,-0.014,-59.8,-3.01,98.1,0.087,0.147,0.982,0.0029,W
21.36,0.0372,-87.87,-2.89,98.2,0.079,0.152,0.98,0.0048,W
21.37,0.0467,-6.56,7.44,98.1,0.076,0.142,0.974,0.0123,W
21.38,0.0644,13.18,-0.83,98.1,0.078,0.145,0.984,0.002,W
