timestamp_sec,ecg_mv,emg_uv,eog_uv,spo2_pct,acc_x,acc_y,acc_z,motion_mag,sleep_stage
0.0,0.007,34.96,-5.34,98.0,0.077,0.153,0.984,0.001,W
0.01,0.0223,-26.76,-1.75,98.1,0.077,0.145,0.981,0.0053,W
0.02,0.0176,-21.45,-8.56,98.1,0.078,0.149,0.979,0.0065,W
0.03,0.0266,90.38,3.85,97.9,0.078,0.155,0.963,0.0216,W
0.04,0.0251,-16.35,2.19,97.8,0.071,0.152,0.993,0.0069,W
0.05,0.0151,19.97,7.94,97.9,0.078,0.137,0.975,0.0128,W
0.06,0.0017,28.13,8.4,98.1,0.071,0.158,0.985,0.0,W
0.07,-0.0093,0.98,-2.04,97.9,0.077,0.148,0.986,0.0002,W
0.08,0.0217,-32.15,-4.59,98.0,0.078,0.154,0.982,0.0029,W
0.09,-0.0151,-12.21,-5.22,98.2,0.079,0.15,0.981,0.0044,W
0.1,-0.0124,20.55,-2.93,98.2,0.083,0.158,0.98,0.0037,W
0.11,0.0224,1.21,-1.15,98.1,0.08,0.145,0.992,0.0053,W
0.12,0.0171,-11.72,2.63,98.1,0.081,0.149,0.978,0.007,W
0.13,0.0387,-12.94,-3.63,97.8,0.077,0.149,0.977,0.0088,W
0.14,0.0096,22.64,-2.51,97.7,0.076,0.155,0.981,0.0037,W
0.15,0.0042,41.34,-3.7,98.0,0.08,0.159,0.975,0.0085,W
0.16,-0.0084,69.9,3.31,98.0,0.087,0.161,0.981,0.002,W
0.17,0.0122,-14.64,-7.83,98.2,0.079,0.145,0.981,0.005,W
0.18,-0.0219,84.49,-9.49,98.0,0.079,0.146,0.977,0.0089,W
0.19,0.0397,76.66,-2.53,98.0,0.078,0.146,0.981,0.0047,W
0.2,-0.0106,44.8,1.44,98.0,0.081,0.15,0.984,0.0013,W
0.21,-0.0231,16.98,-4.7,97.9,0.074,0.143,0.984,0.0027,W
0.22,0.0045,7.82,-2.85,97.9,0.083,0.152,0.977,0.0081,W
0.23,0.02,-93.46,6.41,98.0,0.087,0.155,0.978,0.0064,W
0.24,0.0118,16.03,-1.13,98.1,0.066,0.14,0.981,0.0064,W
0.25,0.0138,-5.17,-3.25,98.3,0.076,0.147,0.983,0.0035,W
0.26,0.0342,13.17,-0.09,98.1,0.075,0.154,0.972,0.0131,W
0.27,0.0106,-70.1,1.39,97.9,0.084,0.155,0.971,0.0134,W
0.28,0.0212,51.88,-7.65,98.0,0.074,0.158,0.978,0.0066,W
0.29,0.0209,-10.33,-0.49,98.2,0.087,0.15,0.986,0.0014,W
0.3,0.0314,6.82,-3.24,98.1,0.077,0.149,0.983,0.0023,W
0.31,0.0445,41.43,2.51,98.0,0.078,0.154,0.973,0.0114,W
0.32,0.0115,92.91,-0.38,97.9,0.077,0.157,0.981,0.0036,W
0.33,0.0852,-14.81,-3.74,97.9,0.081,0.148,0.98,0.0055,W
0.34,0.0995,58.59,1.84,98.0,0.082,0.151,0.976,0.0093,W
0.35,0.0982,-38.65,-1.89,98.2,0.08,0.156,0.98,0.0047,W
0.36,0.1716,-3.36,4.67,98.3,0.083,0.157,0.984,0.0002,W
0.37,0.1462,73.0,0.6,97.9,0.076,0.153,0.974,0.0115,W
0.38,0.2283,37.39,-6.33,98.0,0.079,0.146,0.984,0.0022,W
0.39,0.1513,50.07,-2.61,98.2,0.079,0.145,0.976,0.0103,W
0.4,0.1183,-57.67,-1.57,98.2,0.082,0.149,0.989,0.0037,W
0.41,0.1173,-6.79,7.31,98.1,0.081,0.155,0.974,0.0102,W
0.42,0.0868,19.43,-2.54,97.9,0.08,0.148,0.976,0.0094,W
0.43,0.0218,-9.35,-5.25,98.0,0.079,0.154,0.978,0.0072,W
0.44,0.0439,-63.42,-5.97,98.3,0.078,0.145,0.982,0.004,W
0.45,0.056,7.55,-1.9,98.1,0.084,0.154,0.981,0.0033,W
0.46,-0.0102,29.83,-1.31,98.1,0.077,0.149,0.982,0.004,W
0.47,0.0543,85.52,2.11,98.0,0.076,0.145,0.982,0.0043,W
0.48,-0.0349,66.16,4.2,98.0,0.079,0.152,0.976,0.0096,W
0.49,-0.0239,117.97,-7.49,97.8,0.074,0.162,0.982,0.0017,W
0.5,-0.0473,-8.77,0.25,97.9,0.082,0.148,0.99,0.0045,W
0.51,0.1958,-28.67,-5.15,98.2,0.074,0.146,0.979,0.0071,W
0.52,0.6734,24.34,8.41,98.0,0.081,0.162,0.977,0.0063,W
0.53,1.1269,3.88,1.85,97.8,0.079,0.15,0.97,0.0151,W
0.54,1.2609,9.6,1.69,98.0,0.073,0.157,0.98,0.005,W
0.55,0.9351,-58.94,-1.1,98.3,0.075,0.158,0.978,0.0068,W
0.56,0.3656,0.18,0.6,98.1,0.072,0.149,0.984,0.002,W
0.57,0.0337,-69.55,-3.68,98.1,0.087,0.151,0.976,0.0091,W
0.58,-0.1772,23.24,-3.13,98.1,0.091,0.148,0.979,0.0056,W
0.59,-0.2531,-28.49,5.77,97.9,0.079,0.138,0.982,0.0053,W
0.6,-0.1937,-35.15,-11.61,97.9,0.08,0.15,0.974,0.0112,W
0.61,-0.046,-40.66,-2.22,98.1,0.074,0.148,0.978,0.0084,W
0.62,0.0254,-39.16,-3.0,98.1,0.08,0.153,0.97,0.015,W
0.63,0.0526,68.05,5.96,98.0,0.085,0.153,0.981,0.0036,W
0.64,0.0661,-64.2,-1.12,98.2,0.077,0.145,0.974,0.012,W
0.65,0.0554,72.82,8.53,98.0,0.078,0.155,0.98,0.0045,W
0.66,0.0577,-39.33,-6.54,98.1,0.073,0.148,0.976,0.0097,W
0.67,0.1126,27.49,-7.49,98.1,0.076,0.158,0.981,0.0036,W
0.68,0.1053,1.91,0.98,98.0,0.08,0.144,0.978,0.0087,W
0.69,0.173,23.27,-1.9,98.1,0.087,0.152,0.978,0.0061,W
0.7,0.1949,-16.05,9.87,97.9,0.078,0.147,0.978,0.0077,W
0.71,0.2708,31.93,2.69,98.2,0.08,0.151,0.989,0.0033,W
0.72,0.2535,-65.07,1.47,98.1,0.082,0.15,0.98,0.0049,W
0.73,0.3083,65.06,-2.56,98.2,0.089,0.157,0.98,0.0039,W
0.74,0.3446,-16.65,-2.88,98.2,0.073,0.158,0.978,0.007,W
0.75,0.3755,48.82,2.53,98.1,0.079,0.149,0.98,0.006,W
0.76,0.4177,74.18,5.76,98.0,0.083,0.153,0.985,0.0002,W
0.77,0.3627,57.66,3.35,98.1,0.078,0.142,0.982,0.0044,W
0.78,0.3745,-49.27,-8.06,98.1,0.076,0.148,0.98,0.0059,W
0.79,0.3193,-37.9,2.74,97.9,0.076,0.141,0.979,0.0084,W
0.8,0.289,45.25,-10.81,98.4,0.077,0.152,0.978,0.0077,W
0.81,0.2424,21.84,-5.24,98.2,0.079,0.145,0.989,0.0025,W
0.82,0.2063,-63.03,3.98,98.1,0.072,0.146,0.977,0.0092,W
0.83,0.1731,28.82,7.52,98.1,0.09,0.153,0.979,0.0052,W
0.84,0.0856,31.59,-7.0,98.2,0.077,0.148,0.986,0.0003,W
0.85,0.0799,-3.73,5.45,98.1,0.072,0.16,0.978,0.0067,W
0.86,0.0648,22.95,-9.35,98.3,0.077,0.147,0.982,0.0039,W
0.87,0.0837,3.63,-1.21,97.8,0.071,0.15,0.977,0.0085,W
0.88,0.036,134.13,-2.56,97.8,0.081,0.151,0.981,0.0038,W
0.89,0.0955,95.95,-1.94,98.2,0.079,0.152,0.975,0.0099,W
0.9,0.0678,8.45,2.01,98.3,0.081,0.146,0.989,0.0031,W
0.91,0.0506,-65.93,-3.33,98.1,0.083,0.156,0.978,0.0058,W
0.92,0.0908,-28.85,-6.41,98.2,0.073,0.151,0.971,0.0144,W
0.93,0.0313,-14.39,-4.94,98.0,0.09,0.156,0.98,0.0039,W
0.94,0.0543,-58.72,6.43,98.1,0.084,0.153,0.979,0.006,W
0.95,0.0234,40.01,10.47,98.1,0.083,0.155,0.982,0.0028,W
0.96,0.0563,56.5,-3.83,98.1,0.083,0.154,0.978,0.0063,W
0.97,0.076,33.26,3.7,98.1,0.083,0.15,0.97,0.0151,W
0.98,0.0476,-23.21,-3.22,97.9,0.08,0.151,0.978,0.0069,W
0.99,0.0469,40.35,1.26,97.9,0.083,0.149,0.993,0.0077,W
1.0,0.0437,-8.1,3.37,98.2,0.086,0.149,0.981,0.0037,W
1.01,0.0142,7.92,6.87,98.2,0.074,0.155,0.977,0.008,W
1.02,0.0571,76.61,-5.62,97.9,0.083,0.143,0.984,0.0026,W
1.03,0.0585,-1.07,-6.15,98.3,0.082,0.157,0.971,0.0127,W
1.04,0.0646,-49.73,-15.39,98.0,0.088,0.148,0.982,0.0027,W
1.05,0.0625,-4.84,1.94,98.3,0.08,0.15,0.984,0.0018,W
1.06,0.08,23.39,-1.13,98.2,0.078,0.147,0.984,0.0019,W
1.07,0.1136,-36.02,0.83,98.1,0.084,0.155,0.982,0.0018,W
1.08,0.1545,1.71,-6.96,97.9,0.084,0.148,0.972,0.0131,W
1.09,0.2109,-1.15,-0.35,98.1,0.075,0.15,0.977,0.0088,W
1.1,0.2037,-70.88,-3.87,97.9,0.071,0.149,0.987,0.0002,W
1.11,0.1405,75.42,0.7,97.9,0.09,0.148,0.976,0.0084,W
1.12,0.1504,-12.01,-1.91,98.5,0.074,0.16,0.979,0.0057,W
1.13,0.1485,72.16,3.87,98.2,0.082,0.149,0.978,0.0072,W
1.14,0.0908,-81.15,7.86,98.0,0.078,0.148,0.982,0.0038,W
1.15,0.0801,-61.38,-5.25,98.3,0.083,0.152,0.979,0.006,W
1.16,0.0614,19.49,6.95,97.8,0.077,0.15,0.975,0.0105,W
1.17,0.0442,13.69,0.54,98.0,0.08,0.155,0.975,0.0099,W
1.18,0.0347,6.77,-9.21,98.1,0.079,0.152,0.977,0.0078,W
1.19,0.0569,-63.9,-9.34,98.1,0.083,0.145,0.978,0.0076,W
1.2,0.0388,19.23,5.21,97.8,0.081,0.148,0.98,0.0057,W
1.21,-0.0674,28.01,4.89,98.3,0.081,0.16,0.971,0.0127,W
1.22,-0.0922,-4.74,8.42,98.3,0.081,0.157,0.976,0.0078,W
1.23,0.1824,-5.12,-3.2,98.1,0.088,0.154,0.975,0.0095,W
1.24,0.5904,2.62,-5.27,98.3,0.079,0.158,0.987,0.0025,W
1.25,1.0852,65.32,5.15,98.1,0.08,0.145,0.976,0.0097,W
1.26,1.2506,-38.46,-1.68,97.9,0.086,0.148,0.979,0.0063,W
1.27,0.9786,81.31,-2.49,98.2,0.077,0.145,0.974,0.0124,W
1.28,0.4673,14.67,-7.44,98.1,0.083,0.148,0.978,0.0079,W
1.29,0.0902,5.25,-5.92,98.2,0.083,0.151,0.98,0.0045,W
1.3,-0.1828,-71.75,1.02,97.9,0.084,0.149,0.982,0.0029,W
1.31,-0.2644,13.45,-2.75,98.1,0.079,0.156,0.98,0.0048,W
1.32,-0.1634,-28.24,0.72,98.0,0.089,0.151,0.983,0.0014,W
1.33,-0.0336,-24.09,-1.95,97.8,0.071,0.152,0.985,0.0004,W
1.34,0.0006,6.9,-3.19,98.0,0.083,0.158,0.98,0.004,W
1.35,0.0314,10.65,-1.64,98.2,0.088,0.146,0.976,0.0096,W
1.36,0.0558,42.39,2.52,98.1,0.085,0.145,0.974,0.0116,W
1.37,0.0854,-52.08,2.53,98.2,0.086,0.161,0.986,0.0025,W
1.38,0.0638,47.05,-9.09,98.1,0.089,0.15,0.982,0.0031,W
1.39,0.1024,11.99,0.15,98.1,0.08,0.146,0.981,0.0047,W
1.4,0.0874,-34.08,3.82,97.9,0.085,0.148,0.981,0.0042,W
1.41,0.1731,-13.9,-7.96,98.5,0.076,0.152,0.986,0.0007,W
1.42,0.1734,-21.35,2.65,98.6,0.075,0.152,0.981,0.0046,W
1.43,0.2048,-4.34,-1.83,98.1,0.072,0.159,0.982,0.003,W
1.44,0.2205,43.17,-1.96,98.2,0.09,0.145,0.975,0.0106,W
1.45,0.3077,-55.62,9.68,98.1,0.077,0.149,0.982,0.0041,W
1.46,0.3328,-54.94,-5.84,98.4,0.083,0.164,0.977,0.0056,W
1.47,0.3597,22.47,2.19,98.1,0.082,0.136,0.987,0.0006,W
1.48,0.3637,80.93,1.21,98.1,0.079,0.143,0.98,0.0068,W
1.49,0.3279,30.71,9.41,98.2,0.078,0.154,0.98,0.0048,W
1.5,0.3302,10.97,7.37,98.1,0.071,0.156,0.974,0.0108,W
1.51,0.2847,-130.64,-0.88,98.2,0.083,0.153,0.984,0.0007,W
1.52,0.2337,3.58,2.01,97.9,0.076,0.156,0.987,0.0024,W
1.53,0.2076,-79.86,0.78,98.1,0.076,0.142,0.973,0.0136,W
1.54,0.1876,-32.98,6.26,97.7,0.07,0.15,0.978,0.0084,W
1.55,0.113,38.93,-6.04,98.1,0.085,0.152,0.983,0.0019,W
1.56,0.1075,37.91,-2.0,98.2,0.081,0.141,0.981,0.0052,W
1.57,0.0921,-25.91,7.63,98.2,0.075,0.144,0.982,0.0051,W
1.58,0.0608,-6.62,-9.71,98.0,0.08,0.144,0.978,0.0086,W
1.59,0.0387,-36.06,-2.05,98.0,0.084,0.15,0.988,0.0024,W
1.6,0.003,11.41,-1.88,98.3,0.08,0.15,0.975,0.0099,W
1.61,-0.0008,103.65,-3.44,98.1,0.081,0.151,0.984,0.0008,W
1.62,0.0087,122.07,10.63,98.3,0.073,0.146,0.988,0.0017,W
1.63,0.0127,-76.91,-6.69,98.0,0.069,0.146,0.98,0.0068,W
1.64,0.0253,-73.67,4.56,98.2,0.086,0.149,0.979,0.0058,W
1.65,0.0292,91.19,-0.67,98.3,0.085,0.152,0.987,0.0023,W
1.66,0.0133,51.61,10.78,97.9,0.073,0.155,0.975,0.0102,W
1.67,-0.0142,31.99,-0.34,98.1,0.085,0.158,0.974,0.0101,W
1.68,-0.0085,-32.42,-3.74,98.2,0.078,0.158,0.976,0.008,W
1.69,-0.017,30.99,2.66,98.1,0.084,0.154,0.985,0.0008,W
1.7,0.0065,28.42,-2.76,98.3,0.081,0.152,0.981,0.0038,W
1.71,0.019,6.79,0.8,97.8,0.069,0.144,0.979,0.0077,W
1.72,-0.0135,3.51,2.79,98.0,0.089,0.151,0.981,0.0035,W
1.73,0.0079,23.03,-7.86,98.1,0.086,0.147,0.976,0.009,W
1.74,0.0043,49.28,-1.66,97.9,0.082,0.16,0.977,0.0067,W
1.75,0.0016,6.72,-3.82,98.4,0.07,0.142,0.979,0.0078,W
1.76,0.0046,-6.82,-2.56,98.2,0.076,0.152,0.986,0.0002,W
1.77,0.0435,-13.3,1.34,98.1,0.086,0.153,0.987,0.003,W
1.78,0.0522,-43.98,-8.72,98.3,0.075,0.144,0.981,0.0054,W
1.79,0.11,-48.25,3.9,98.2,0.071,0.136,0.985,0.0025,W
1.8,0.1385,-11.99,-2.1,98.0,0.082,0.154,0.975,0.0092,W
1.81,0.1291,27.06,1.79,98.1,0.078,0.146,0.985,0.0014,W
1.82,0.1791,-92.66,2.48,97.9,0.077,0.145,0.976,0.0101,W
1.83,0.1133,2.21,15.21,98.4,0.076,0.149,0.984,0.0022,W
1.84,0.0892,30.14,-8.46,98.4,0.085,0.144,0.977,0.009,W
1.85,0.0756,20.7,0.92,98.3,0.086,0.151,0.976,0.0082,W
1.86,0.0308,-88.06,3.17,98.2,0.079,0.144,0.982,0.004,W
1.87,0.0016,20.13,-1.13,98.2,0.077,0.147,0.976,0.0095,W
1.88,-0.0273,-68.86,-1.51,98.3,0.081,0.15,0.977,0.0079,W
1.89,0.0058,7.44,-2.41,98.1,0.079,0.147,0.979,0.0072,W
1.9,0.0035,-9.91,1.68,98.2,0.083,0.148,0.991,0.0053,W
1.91,-0.0269,29.22,9.99,98.4,0.076,0.145,0.973,0.0129,W
1.92,-0.1026,27.58,4.3,98.4,0.071,0.153,0.976,0.0099,W
1.93,-0.1304,-37.6,4.81,98.3,0.073,0.148,0.975,0.0112,W
1.94,-0.0405,36.45,0.27,98.5,0.078,0.148,0.98,0.0063,W
1.95,0.3145,-20.72,7.35,98.1,0.081,0.149,0.978,0.0074,W
1.96,0.7832,-52.62,-7.87,98.0,0.077,0.161,0.974,0.0096,W
1.97,1.1771,55.53,-2.4,98.0,0.076,0.153,0.974,0.011,W
1.98,1.1186,1.2,1.98,98.0,0.091,0.152,0.979,0.0051,W
1.99,0.6164,-45.15,-1.68,98.0,0.079,0.151,0.974,0.0114,W
2.0,0.1541,30.09,13.5,98.1,0.074,0.155,0.987,0.0016,W
2.01,-0.155,57.42,8.33,97.8,0.079,0.146,0.985,0.0012,W
2.02,-0.3263,53.46,-8.4,98.0,0.083,0.147,0.984,0.0014,W
2.03,-0.3256,20.24,0.66,98.2,0.085,0.143,0.989,0.003,W
2.04,-0.2001,71.32,-3.67,98.0,0.079,0.149,0.976,0.0096,W
2.05,-0.1138,25.7,0.16,98.3,0.081,0.143,0.978,0.0083,W
2.06,-0.0331,14.4,5.7,98.2,0.089,0.156,0.975,0.0087,W
2.07,-0.054,109.76,-2.84,98.3,0.087,0.145,0.971,0.0139,W
2.08,0.0227,-15.68,1.82,98.3,0.077,0.153,0.974,0.0111,W
2.09,-0.0088,-26.02,10.44,98.2,0.073,0.139,0.982,0.0058,W
2.1,0.0559,23.85,7.84,98.2,0.083,0.153,0.978,0.0063,W
2.11,0.0186,7.17,-3.85,98.1,0.071,0.149,0.984,0.0019,W
2.12,0.0298,-41.3,-8.2,98.0,0.075,0.155,0.983,0.0022,W
2.13,0.0932,-55.36,-2.96,98.3,0.082,0.147,0.981,0.0046,W
2.14,0.1542,29.74,10.29,98.0,0.083,0.156,0.979,0.0055,W
2.15,0.1692,-14.01,3.91,98.2,0.066,0.145,0.974,0.0131,W
2.16,0.2045,-40.63,2.14,98.2,0.076,0.153,0.979,0.0065,W
2.17,0.2635,19.8,-3.08,98.2,0.081,0.151,0.985,0.0001,W
2.18,0.3096,-1.12,1.12,98.4,0.083,0.156,0.983,0.0018,W
2.19,0.3004,-34.11,7.62,98.0,0.084,0.144,0.978,0.0076,W
2.2,0.3063,-2.39,0.83,98.1,0.074,0.152,0.982,0.0034,W
2.21,0.2765,53.58,-2.43,97.9,0.079,0.149,0.977,0.0085,W
2.22,0.2529,-14.21,-2.28,98.3,0.081,0.149,0.981,0.0042,W
2.23,0.2242,35.27,2.36,98.4,0.084,0.149,0.982,0.0036,W
2.24,0.1511,28.75,-3.99,98.2,0.076,0.147,0.97,0.0156,W
2.25,0.1091,-35.6,-3.14,98.1,0.077,0.145,0.975,0.0113,W
2.26,0.071,101.44,-11.86,98.2,0.087,0.149,0.98,0.0052,W
2.27,0.0643,41.23,-2.82,98.1,0.078,0.149,0.98,0.0059,W
2.28,-0.0204,-30.17,-5.17,98.1,0.073,0.16,0.979,0.0048,W
2.29,-0.0105,42.86,3.96,98.1,0.084,0.153,0.98,0.0044,W
2.3,-0.0576,10.29,-3.21,98.3,0.083,0.147,0.991,0.0057,W
2.31,-0.0212,-39.01,-3.29,98.1,0.082,0.148,0.977,0.0088,W
2.32,-0.0277,-22.93,-2.67,98.2,0.077,0.153,0.985,0.0004,W
2.33,-0.0474,49.21,-1.23,98.1,0.074,0.15,0.986,0.0003,W
2.34,-0.0425,39.85,8.04,98.2,0.073,0.147,0.971,0.0152,W
2.35,-0.0503,21.73,0.11,98.1,0.08,0.143,0.974,0.0125,W
2.36,-0.0434,11.72,4.52,98.3,0.08,0.14,0.984,0.003,W
2.37,-0.0326,-11.21,-9.22,98.1,0.079,0.15,0.981,0.0044,W
2.38,-0.0726,17.17,1.37,98.4,0.081,0.155,0.98,0.0048,W
2.39,-0.046,42.72,3.04,98.1,0.081,0.16,0.977,0.0068,W
2.4,-0.0336,4.83,-2.67,98.3,0.079,0.148,0.979,0.0064,W
2.41,-0.06,13.71,6.68,98.1,0.093,0.151,0.985,0.0008,W
2.42,-0.0331,47.48,-4.12,98.1,0.086,0.147,0.977,0.0081,W
2.43,-0.0055,-3.12,3.18,98.2,0.081,0.146,0.986,0.0001,W
2.44,-0.0475,55.69,0.83,98.2,0.086,0.146,0.979,0.0064,W
2.45,-0.028,18.08,3.7,98.1,0.09,0.149,0.977,0.0072,W
2.46,-0.0008,25.28,-2.53,98.1,0.069,0.146,0.983,0.0043,W
2.47,0.0418,49.57,-2.14,98.2,0.082,0.148,0.978,0.0075,W
2.48,0.0446,-4.99,4.13,98.4,0.07,0.153,0.979,0.0064,W
2.49,0.0909,3.8,-1.15,98.2,0.082,0.159,0.974,0.01,W
2.5,0.0958,-46.02,12.18,98.2,0.086,0.146,0.985,0.0009,W
2.51,0.1169,17.58,-8.28,98.4,0.081,0.147,0.978,0.0078,W
2.52,0.0553,27.66,2.59,98.2,0.077,0.146,0.985,0.0015,W
2.53,0.0331,6.88,4.14,98.3,0.084,0.149,0.987,0.0015,W
2.54,0.0275,-5.47,3.59,98.2,0.078,0.148,0.991,0.0047,W
2.55,-0.0284,-12.51,-9.63,98.1,0.083,0.15,0.976,0.009,W
2.56,-0.0176,21.83,-6.38,98.2,0.081,0.152,0.973,0.0116,W
2.57,-0.0605,51.45,0.38,98.3,0.072,0.148,0.981,0.0058,W
2.58,-0.0478,-63.69,-10.38,98.0,0.084,0.152,0.977,0.0081,W
2.59,-0.0709,-33.96,-1.8,98.1,0.076,0.152,0.982,0.0038,W
2.6,-0.062,-45.58,7.25,98.0,0.072,0.151,0.989,0.0028,W
2.61,-0.1258,60.41,-1.4,98.3,0.079,0.152,0.989,0.0037,W
2.62,-0.2288,-9.82,-5.79,97.8,0.081,0.15,0.979,0.0064,W
2.63,-0.0388,17.61,-4.99,98.3,0.077,0.149,0.974,0.0116,W
2.64,0.323,-16.1,5.08,98.1,0.088,0.154,0.975,0.0094,W
2.65,0.8725,-101.72,2.06,98.4,0.077,0.149,0.983,0.0029,W
2.66,1.1617,-11.01,-1.15,98.1,0.074,0.16,0.98,0.0041,W
2.67,1.0882,-47.84,-0.09,98.1,0.077,0.141,0.983,0.0039,W
2.68,0.5686,-34.01,-0.85,98.3,0.083,0.138,0.983,0.0035,W
2.69,0.1051,29.44,-0.46,98.2,0.082,0.149,0.978,0.0074,W
2.7,-0.2098,-16.01,3.83,98.3,0.082,0.139,0.986,0.0009,W
2.71,-0.3032,60.35,-1.63,98.2,0.083,0.15,0.987,0.0022,W
2.72,-0.3378,-126.95,3.83,98.1,0.081,0.147,0.98,0.0058,W
2.73,-0.2222,36.41,5.35,98.1,0.074,0.146,0.984,0.0027,W
2.74,-0.1239,-59.56,-3.29,98.2,0.083,0.149,0.976,0.0089,W
2.75,-0.0414,-25.05,-3.57,98.2,0.081,0.153,0.975,0.0092,W
2.76,-0.0463,64.44,-1.97,98.3,0.081,0.15,0.983,0.002,W
2.77,-0.0491,-21.39,-3.31,98.1,0.081,0.146,0.99,0.0042,W
2.78,-0.0085,34.74,-4.99,98.1,0.086,0.149,0.984,0.0012,W
2.79,-0.0255,6.18,-2.55,98.4,0.086,0.15,0.983,0.0024,W
2.8,-0.0066,-65.3,15.16,98.1,0.084,0.156,0.98,0.0043,W
2.81,0.0677,-88.93,-0.11,98.1,0.083,0.147,0.978,0.007,W
2.82,0.1223,93.09,-0.43,98.3,0.085,0.154,0.98,0.0038,W
2.83,0.1354,44.75,3.72,98.3,0.067,0.148,0.979,0.0071,W
2.84,0.1624,-31.98,4.06,98.3,0.065,0.153,0.983,0.0031,W
2.85,0.2352,-54.93,-9.98,98.0,0.079,0.154,0.974,0.0102,W
2.86,0.2548,81.57,3.1,98.4,0.084,0.146,0.985,0.0008,W
2.87,0.3171,-70.58,5.82,98.2,0.078,0.158,0.985,0.0008,W
2.88,0.2734,38.83,-1.39,98.4,0.076,0.15,0.98,0.0058,W
2.89,0.3258,102.9,-0.07,98.7,0.078,0.153,0.985,0.0006,W
2.9,0.2386,-14.64,-1.13,98.2,0.08,0.141,0.977,0.0098,W
2.91,0.2178,-64.22,0.98,98.2,0.082,0.151,0.987,0.0021,W
2.92,0.1904,-29.83,-2.2,98.1,0.082,0.148,0.987,0.0016,W
2.93,0.1344,51.34,-0.34,98.4,0.073,0.154,0.98,0.0054,W
2.94,0.1316,56.98,3.93,98.1,0.079,0.147,0.984,0.0015,W
2.95,0.0831,59.34,-3.4,98.5,0.084,0.153,0.969,0.0159,W
2.96,0.064,-36.96,2.11,98.1,0.072,0.149,0.988,0.0015,W
2.97,-0.0166,34.85,-1.58,98.3,0.083,0.151,0.984,0.0015,W
2.98,-0.0287,52.56,5.27,98.2,0.087,0.146,0.985,0.0009,W
2.99,-0.045,-33.81,2.37,98.3,0.078,0.145,0.99,0.0036,W
3.0,-0.0451,-9.83,-5.12,97.8,0.085,0.149,0.969,0.0154,W
3.01,-0.0274,-56.02,-4.53,98.3,0.077,0.148,0.98,0.0063,W
3.02,-0.0389,70.77,-5.31,98.1,0.079,0.147,0.981,0.0051,W
3.03,-0.048,68.36,2.26,98.1,0.075,0.149,0.981,0.0045,W
3.04,-0.031,71.81,1.6,98.4,0.08,0.158,0.983,0.0017,W
3.05,-0.0662,-46.06,-2.93,98.2,0.081,0.158,0.983,0.0014,W
3.06,-0.0185,8.97,0.05,98.3,0.075,0.151,0.98,0.0058,W
3.07,-0.0172,-28.7,-6.27,98.3,0.079,0.144,0.981,0.0054,W
3.08,-0.0366,-9.11,2.47,98.3,0.076,0.15,0.973,0.013,W
3.09,-0.0648,-87.48,-7.26,98.1,0.079,0.148,0.984,0.0016,W
3.1,-0.0301,-20.36,-2.27,98.1,0.079,0.149,0.979,0.0069,W
3.11,-0.03,-41.78,1.02,98.4,0.08,0.147,0.992,0.0057,W
3.12,-0.0484,59.19,2.76,98.3,0.084,0.149,0.97,0.0146,W
3.13,-0.0159,49.91,7.5,98.3,0.075,0.144,0.974,0.0126,W
3.14,-0.0513,-6.23,-6.62,98.5,0.088,0.153,0.977,0.0077,W
3.15,0.0011,-11.43,6.88,98.1,0.084,0.153,0.982,0.0029,W
3.16,0.0353,25.97,0.16,98.5,0.083,0.152,0.977,0.0077,W
3.17,0.0552,-9.75,1.09,98.3,0.083,0.149,0.984,0.0017,W
3.18,0.0868,-0.11,-6.24,98.2,0.08,0.149,0.991,0.0055,W
3.19,0.1348,36.33,0.8,98.0,0.077,0.153,0.982,0.0029,W
3.2,0.0978,41.16,-5.1,98.2,0.085,0.146,0.978,0.0078,W
3.21,0.0825,-68.99,-7.31,98.3,0.081,0.152,0.984,0.0011,W
3.22,0.067,-65.47,2.68,98.1,0.092,0.15,0.985,0.0007,W
3.23,0.0041,16.49,-12.58,98.2,0.076,0.147,0.982,0.0041,W
3.24,-0.0181,-49.1,-9.23,98.3,0.084,0.146,0.974,0.0112,W
3.25,-0.0271,-46.92,-5.96,98.4,0.085,0.157,0.981,0.0034,W
3.26,-0.0305,1.67,-2.16,98.1,0.08,0.148,0.983,0.0031,W
3.27,-0.0215,-51.57,-10.04,98.2,0.086,0.152,0.974,0.01,W
3.28,-0.0051,55.27,4.0,98.2,0.085,0.147,0.974,0.0114,W
3.29,-0.0371,-6.65,-9.05,98.1,0.077,0.152,0.982,0.0032,W
3.3,-0.0868,26.88,-8.92,98.0,0.078,0.149,0.981,0.005,W
3.31,-0.1119,-12.07,2.96,98.3,0.087,0.15,0.976,0.0087,W
3.32,-0.0834,23.16,3.78,98.4,0.081,0.155,0.979,0.0053,W
3.33,0.2504,-14.15,5.28,98.6,0.086,0.149,0.977,0.0078,W
3.34,0.7659,55.56,-0.4,98.3,0.08,0.153,0.984,0.0008,W
3.35,1.1858,42.91,-0.73,98.2,0.089,0.143,0.984,0.0016,W
3.36,1.167,47.53,5.6,98.2,0.068,0.153,0.98,0.0062,W
3.37,0.6695,10.16,-11.09,98.0,0.078,0.144,0.981,0.0051,W
3.38,0.1885,-37.4,-0.35,98.3,0.072,0.147,0.982,0.0046,W
3.39,-0.1308,-5.17,6.3,98.3,0.084,0.158,0.971,0.0123,W
3.4,-0.2736,30.02,-7.61,98.1,0.079,0.15,0.976,0.0092,W
3.41,-0.2661,-18.39,-5.34,98.4,0.075,0.151,0.984,0.0013,W
3.42,-0.1907,12.21,-3.52,98.5,0.078,0.155,0.983,0.0014,W
3.43,-0.0881,39.54,-3.61,98.1,0.079,0.154,0.974,0.0106,W
3.44,-0.0466,35.28,-2.21,98.1,0.09,0.155,0.983,0.0009,W
3.45,-0.011,-28.0,4.29,98.3,0.075,0.145,0.983,0.0038,W
3.46,-0.0177,92.39,-4.56,98.3,0.08,0.151,0.972,0.0131,W
3.47,0.0061,-21.56,-9.8,98.1,0.076,0.153,0.985,0.0003,W
3.48,0.0482,-12.18,-2.47,98.3,0.079,0.154,0.977,0.0072,W
3.49,0.0664,-37.66,-1.38,97.9,0.083,0.148,0.97,0.0151,W
3.5,0.0689,-25.69,-2.7,98.5,0.073,0.151,0.973,0.0124,W
3.51,0.1439,86.95,-3.97,98.2,0.082,0.141,0.982,0.0042,W
3.52,0.1908,12.57,-5.48,98.4,0.089,0.151,0.987,0.0023,W
3.53,0.2114,41.48,-7.44,98.3,0.08,0.148,0.98,0.0057,W
3.54,0.2295,15.78,3.64,98.2,0.076,0.146,0.976,0.0099,W
3.55,0.2754,-17.63,-3.67,97.9,0.077,0.149,0.985,0.001,W
3.56,0.2896,-11.99,5.48,98.3,0.078,0.148,0.981,0.0044,W
3.57,0.3405,8.09,-5.11,98.4,0.082,0.141,0.972,0.0143,W
3.58,0.3471,-95.7,0.5,98.2,0.082,0.144,0.968,0.0181,W
3.59,0.3337,-18.68,2.4,98.3,0.077,0.16,0.974,0.01,W
3.6,0.3223,43.24,5.49,98.2,0.089,0.151,0.972,0.0125,W
3.61,0.2313,-7.39,-0.57,98.4,0.078,0.147,0.979,0.0074,W
3.62,0.2274,50.59,9.99,98.2,0.088,0.153,0.98,0.0047,W
3.63,0.1861,100.03,-14.41,98.1,0.069,0.154,0.986,0.0001,W
3.64,0.1203,11.6,3.46,98.2,0.08,0.153,0.976,0.0089,W
3.65,0.0837,13.32,2.71,98.2,0.086,0.148,0.979,0.0064,W
3.66,0.0559,47.56,7.4,98.2,0.076,0.148,0.974,0.0123,W
3.67,0.0436,1.38,-5.69,98.4,0.087,0.163,0.978,0.0048,W
3.68,0.0422,32.61,-1.41,98.3,0.076,0.153,0.976,0.009,W
3.69,0.006,-47.11,1.32,98.0,0.083,0.148,0.981,0.0042,W
3.7,0.0206,20.07,-3.82,98.1,0.083,0.152,0.979,0.0062,W
3.71,-0.0008,70.3,3.44,98.5,0.074,0.146,0.978,0.0088,W
3.72,0.0479,-30.14,-4.98,98.1,0.071,0.164,0.982,0.0014,W
3.73,-0.0049,8.24,-3.91,98.5,0.079,0.146,0.984,0.0022,W
3.74,-0.0188,-40.05,2.5,98.3,0.087,0.158,0.981,0.0025,W
3.75,0.0215,47.57,-3.85,98.6,0.07,0.15,0.972,0.0144,W
3.76,-0.0078,-15.37,-4.19,98.4,0.077,0.156,0.976,0.0081,W
3.77,0.0604,21.7,-1.01,98.4,0.076,0.147,0.977,0.0092,W
3.78,0.03,-39.43,-3.31,98.2,0.086,0.146,0.983,0.002,W
3.79,0.0265,0.71,-3.74,98.5,0.084,0.14,0.981,0.0055,W
3.8,0.0676,-11.64,2.48,98.3,0.08,0.146,0.986,0.0,W
3.81,0.0279,81.58,7.4,98.4,0.081,0.147,0.977,0.0088,W
3.82,0.0343,-60.5,4.15,98.2,0.079,0.148,0.977,0.0086,W
3.83,0.0417,39.65,-6.92,98.3,0.072,0.151,0.992,0.0064,W
3.84,0.0807,-10.83,3.12,98.3,0.073,0.141,0.975,0.0117,W
3.85,0.1036,-7.34,-1.7,98.1,0.075,0.147,0.986,0.0003,W
3.86,0.1153,-29.7,-3.63,98.2,0.071,0.156,0.976,0.009,W
3.87,0.1625,-24.1,3.35,98.4,0.084,0.147,0.976,0.0094,W
3.88,0.2064,24.08,3.0,98.1,0.08,0.157,0.973,0.0112,W
3.89,0.1742,99.19,-5.51,98.2,0.091,0.157,0.979,0.0038,W
3.9,0.1378,-10.64,5.19,98.4,0.082,0.153,0.98,0.0051,W
3.91,0.1193,-16.77,-4.22,98.1,0.083,0.151,0.983,0.002,W
3.92,0.0755,71.73,5.09,98.3,0.08,0.152,0.977,0.0085,W
3.93,0.0961,10.21,-1.12,98.3,0.077,0.15,0.981,0.0048,W
3.94,0.0434,-4.77,3.25,98.1,0.076,0.137,0.976,0.0117,W
3.95,0.0284,-5.55,5.79,98.5,0.076,0.152,0.978,0.0071,W
3.96,0.0628,-46.48,0.95,98.4,0.087,0.149,0.976,0.0086,W
3.97,0.0264,9.42,0.46,98.3,0.08,0.148,0.988,0.0022,W
3.98,0.0166,20.83,-0.92,98.1,0.08,0.148,0.979,0.0064,W
3.99,-0.035,-67.9,-4.54,98.3,0.074,0.155,0.976,0.0089,W
4.0,-0.0734,4.82,-5.92,98.2,0.074,0.147,0.987,0.001,W
4.01,0.0227,-34.7,3.62,98.2,0.088,0.149,0.983,0.0024,W
4.02,0.4268,-9.28,-4.49,98.2,0.082,0.146,0.982,0.0036,W
4.03,0.8668,74.83,-4.26,98.2,0.081,0.156,0.985,0.0008,W
4.04,1.2594,9.47,0.86,98.0,0.083,0.156,0.977,0.0071,W
4.05,1.1322,2.5,0.7,98.0,0.089,0.158,0.979,0.0047,W
4.06,0.6401,-40.36,4.94,98.6,0.075,0.154,0.985,0.0003,W
4.07,0.1668,42.61,-3.79,98.5,0.076,0.159,0.986,0.0021,W
4.08,-0.1245,-64.53,2.43,98.2,0.077,0.151,0.973,0.0123,W
4.09,-0.2776,70.87,6.4,98.3,0.084,0.155,0.975,0.0087,W
4.1,-0.2754,11.15,9.47,98.3,0.079,0.161,0.976,0.0072,W
4.11,-0.1075,44.04,-5.13,97.9,0.081,0.146,0.977,0.0086,W
4.12,-0.0147,12.25,7.3,98.2,0.072,0.154,0.974,0.0118,W
4.13,0.0484,-71.47,-0.63,98.4,0.071,0.147,0.985,0.0013,W
4.14,0.0621,24.5,2.77,98.4,0.084,0.158,0.98,0.0038,W
4.15,0.0476,14.06,3.62,98.3,0.079,0.151,0.98,0.0054,W
4.16,0.0924,-109.48,7.0,98.5,0.074,0.155,0.985,0.0004,W
4.17,0.0785,-51.56,-8.26,98.3,0.077,0.146,0.98,0.006,W
4.18,0.068,-80.53,-7.48,98.3,0.089,0.147,0.982,0.0028,W
4.19,0.1748,-8.56,-3.54,98.3,0.079,0.155,0.979,0.0056,W
4.2,0.1465,61.81,-7.63,98.3,0.078,0.152,0.976,0.0088,W
4.21,0.2145,-27.12,-0.16,98.2,0.081,0.155,0.978,0.0066,W
4.22,0.2293,-11.31,-1.21,98.1,0.084,0.156,0.989,0.005,W
4.23,0.3331,-1.52,3.62,98.4,0.083,0.15,0.972,0.0135,W
4.24,0.3476,108.01,-3.28,98.3,0.081,0.141,0.982,0.005,W
4.25,0.3776,41.21,-2.06,98.2,0.084,0.159,0.974,0.0096,W
4.26,0.3889,47.08,6.8,98.2,0.085,0.146,0.976,0.0092,W
4.27,0.3625,-62.96,3.33,98.3,0.083,0.145,0.979,0.0069,W
4.28,0.3612,24.07,4.61,98.4,0.078,0.146,0.981,0.0051,W
4.29,0.3348,-28.34,-4.15,98.5,0.078,0.154,0.978,0.0069,W
4.3,0.3078,32.59,3.55,98.3,0.077,0.146,0.988,0.0016,W
4.31,0.2144,-44.29,7.13,98.4,0.082,0.15,0.978,0.0072,W
4.32,0.2103,-23.19,3.44,98.4,0.083,0.148,0.975,0.0108,W
4.33,0.1757,-41.48,0.8,98.4,0.076,0.147,0.972,0.0141,W
4.34,0.167,-16.97,-6.0,98.3,0.08,0.154,0.986,0.0012,W
4.35,0.1015,-15.81,11.37,98.3,0.08,0.144,0.977,0.0095,W
4.36,0.08,43.95,-1.8,98.1,0.084,0.152,0.975,0.0095,W
4.37,0.0984,79.66,3.64,98.3,0.078,0.145,0.98,0.0063,W
4.38,0.0592,-8.49,-5.5,98.5,0.08,0.147,0.984,0.0015,W
4.39,0.0593,-8.27,2.24,98.3,0.077,0.151,0.976,0.0092,W
4.4,0.0327,11.67,2.15,98.3,0.08,0.147,0.976,0.0097,W
4.41,0.0593,-45.87,-4.11,98.4,0.078,0.153,0.99,0.0049,W
4.42,0.0483,-59.8,-5.13,98.4,0.086,0.154,0.98,0.0044,W
4.43,0.0421,32.71,-2.44,98.2,0.082,0.153,0.983,0.0021,W
4.44,0.036,-70.56,5.93,98.0,0.079,0.159,0.98,0.0038,W
4.45,0.0646,43.72,2.64,98.3,0.084,0.149,0.976,0.0091,W
4.46,0.0633,3.5,2.76,98.4,0.077,0.154,0.985,0.0004,W
4.47,0.0553,-2.57,8.73,98.5,0.081,0.153,0.975,0.0096,W
4.48,0.0336,-56.45,3.8,98.2,0.082,0.151,0.977,0.0082,W
4.49,0.0156,-115.78,-4.06,98.3,0.081,0.15,0.984,0.0011,W
4.5,0.0626,-6.6,-1.63,98.4,0.076,0.146,0.979,0.0071,W
4.51,0.0301,-4.25,5.4,98.1,0.073,0.148,0.989,0.003,W
4.52,0.0412,-7.01,1.86,98.2,0.079,0.158,0.979,0.0052,W
4.53,0.0833,4.41,2.3,98.5,0.076,0.151,0.978,0.0075,W
4.54,0.1217,-34.41,-13.32,98.3,0.079,0.156,0.978,0.0061,W
4.55,0.1032,-29.9,5.13,98.1,0.082,0.149,0.978,0.0078,W
4.56,0.173,-27.46,-0.11,98.1,0.085,0.146,0.981,0.0042,W
4.57,0.2232,-19.29,0.26,98.1,0.09,0.152,0.977,0.0069,W
4.58,0.1489,-6.42,4.18,98.2,0.081,0.15,0.984,0.0013,W
4.59,0.1579,-49.33,-9.53,98.3,0.08,0.147,0.976,0.0101,W
4.6,0.14,57.82,4.19,98.4,0.081,0.146,0.987,0.0012,W
4.61,0.1069,-18.43,0.37,98.2,0.082,0.149,0.985,0.0005,W
4.62,0.0531,39.92,7.18,98.4,0.081,0.147,0.978,0.0074,W
4.63,0.0708,-30.03,0.84,98.0,0.079,0.151,0.972,0.013,W
4.64,0.0637,-76.16,4.62,98.4,0.086,0.144,0.984,0.0013,W
4.65,0.0588,-26.39,-4.77,98.5,0.08,0.151,0.981,0.0038,W
4.66,0.0474,34.84,-0.9,98.3,0.078,0.15,0.983,0.002,W
4.67,0.0259,0.62,-2.94,98.3,0.08,0.15,0.985,0.0008,W
4.68,0.0529,-62.05,9.25,98.3,0.078,0.15,0.978,0.007,W
4.69,-0.0522,16.75,4.26,98.2,0.087,0.146,0.984,0.0016,W
4.7,-0.0079,3.74,0.94,98.2,0.078,0.153,0.988,0.003,W
4.71,0.2151,-69.07,-6.74,98.2,0.079,0.15,0.978,0.0072,W
4.72,0.7121,23.35,-1.28,98.3,0.078,0.151,0.972,0.0132,W
4.73,1.1566,57.64,9.26,98.3,0.076,0.148,0.988,0.0022,W
4.74,1.2652,-84.72,5.37,98.3,0.075,0.149,0.98,0.0059,W
4.75,0.8864,26.56,-3.51,98.4,0.081,0.15,0.983,0.002,W
4.76,0.3192,-97.62,5.96,98.3,0.077,0.152,0.972,0.0134,W
4.77,-0.0003,13.28,-1.36,98.1,0.092,0.147,0.98,0.0043,W
4.78,-0.2061,-2.21,-6.11,98.1,0.087,0.151,0.985,0.0001,W
4.79,-0.2288,30.58,1.24,98.0,0.074,0.146,0.983,0.0039,W
4.8,-0.1692,12.49,2.4,98.5,0.085,0.144,0.977,0.009,W
4.81,-0.0625,-23.59,-1.0,98.1,0.08,0.145,0.986,0.0005,W
4.82,-0.0061,-80.29,-1.59,98.4,0.074,0.145,0.981,0.0055,W
4.83,0.0263,-133.66,-1.59,97.9,0.08,0.154,0.981,0.0038,W
4.84,0.0648,-4.44,6.52,98.3,0.078,0.145,0.979,0.0069,W
4.85,0.0513,-26.05,-0.2,98.3,0.087,0.158,0.984,0.0006,W
4.86,0.0595,13.06,6.33,98.0,0.084,0.154,0.98,0.0046,W
4.87,0.0843,-0.06,9.89,98.3,0.086,0.154,0.984,0.0004,W
4.88,0.0953,-37.83,1.29,98.3,0.081,0.151,0.986,0.0003,W
4.89,0.16,1.46,0.4,98.4,0.076,0.147,0.973,0.0135,W
4.9,0.1913,-53.67,-2.85,98.2,0.083,0.153,0.968,0.0166,W
4.91,0.2425,26.51,-2.89,98.4,0.082,0.158,0.974,0.01,W
4.92,0.3073,-13.15,7.22,98.5,0.084,0.149,0.981,0.0042,W
4.93,0.3142,-66.22,-1.73,98.3,0.084,0.153,0.978,0.0064,W
4.94,0.348,87.27,3.0,98.5,0.078,0.144,0.984,0.0027,W
4.95,0.3882,46.4,0.87,98.5,0.079,0.153,0.97,0.0143,W
4.96,0.362,-121.67,4.28,98.2,0.078,0.153,0.97,0.0148,W
4.97,0.3423,-46.81,0.45,98.5,0.081,0.15,0.986,0.0009,W
4.98,0.3293,-26.96,6.03,98.2,0.079,0.158,0.981,0.0037,W
4.99,0.3117,77.1,-3.82,98.3,0.081,0.146,0.985,0.0006,W
5.0,0.2638,-23.89,-0.62,98.2,0.076,0.161,0.979,0.0048,W
5.01,0.2132,-4.09,11.03,98.4,0.076,0.144,0.986,0.001,W
5.02,0.1711,-36.48,8.45,98.2,0.077,0.153,0.98,0.0048,W
5.03,0.097,21.45,-2.63,98.4,0.075,0.153,0.981,0.0042,W
5.04,0.0869,-62.36,-5.55,98.0,0.086,0.157,0.974,0.0097,W
5.05,0.0534,20.6,-7.5,98.2,0.085,0.157,0.979,0.0053,W
5.06,0.0532,5.31,3.53,98.4,0.078,0.151,0.979,0.0068,W
5.07,0.0057,-11.6,-6.78,98.4,0.08,0.154,0.979,0.0057,W
5.08,0.0146,19.16,-9.84,98.4,0.084,0.153,0.985,0.0005,W
5.09,0.0527,52.2,6.63,98.4,0.084,0.146,0.994,0.0082,W
5.1,0.0237,7.99,1.23,98.4,0.077,0.146,0.975,0.0109,W
5.11,0.0156,-14.01,4.53,98.2,0.09,0.151,0.975,0.0091,W
5.12,0.0765,-18.68,-6.88,98.2,0.078,0.156,0.971,0.0138,W
5.13,0.0717,-5.67,2.25,98.3,0.083,0.154,0.981,0.004,W
5.14,0.0425,-71.41,-5.22,98.2,0.073,0.15,0.976,0.0102,W
5.15,0.0305,-42.2,0.37,98.2,0.077,0.15,0.984,0.0021,W
5.16,0.0302,7.05,-4.07,98.3,0.083,0.141,0.974,0.0119,W
5.17,-0.0162,-42.07,1.78,98.4,0.086,0.149,0.976,0.0093,W
5.18,0.059,-39.53,-6.03,98.2,0.084,0.152,0.978,0.0069,W
5.19,0.0286,16.76,-0.58,98.3,0.083,0.148,0.98,0.0057,W
5.2,-0.0016,46.71,6.84,98.5,0.076,0.154,0.985,0.0005,W
5.21,-0.0057,-37.53,-0.51,98.4,0.08,0.161,0.981,0.003,W
5.22,0.0183,-28.92,-1.2,98.2,0.085,0.145,0.991,0.0054,W
5.23,-0.0195,-97.8,2.39,98.2,0.085,0.15,0.981,0.0039,W
5.24,0.0422,-89.48,1.06,98.5,0.084,0.156,0.982,0.0026,W
5.25,0.02,-68.28,3.21,98.3,0.084,0.156,0.984,0.0001,W
5.26,0.0581,123.68,-8.74,98.3,0.078,0.15,0.977,0.0084,W
5.27,0.095,-10.09,-2.21,98.6,0.08,0.159,0.983,0.0014,W
5.28,0.1396,5.65,-5.76,98.2,0.08,0.157,0.989,0.005,W
5.29,0.162,52.7,-1.64,98.6,0.081,0.15,0.977,0.0083,W
5.3,0.1617,-12.91,-4.21,98.0,0.076,0.163,0.981,0.0026,W
5.31,0.1275,-72.25,5.24,98.4,0.078,0.16,0.985,0.0013,W
5.32,0.1253,-44.46,8.49,98.3,0.081,0.16,0.988,0.0036,W
5.33,0.0785,-53.04,3.42,98.1,0.086,0.154,0.986,0.002,W
5.34,0.0464,5.28,3.85,98.5,0.08,0.158,0.994,0.0092,W
5.35,0.0228,54.62,-3.08,98.4,0.088,0.158,0.99,0.006,W
5.36,0.0169,-31.72,5.49,98.3,0.075,0.146,0.987,0.0002,W
5.37,-0.0256,48.49,4.63,98.1,0.081,0.159,0.992,0.0081,W
5.38,0.0065,-7.23,-0.98,98.4,0.083,0.164,0.991,0.0082,W
5.39,-0.001,-26.76,-5.94,98.2,0.086,0.165,0.985,0.0023,W
5.4,-0.0247,32.55,9.28,98.1,0.078,0.163,0.994,0.0101,W
5.41,-0.1302,-58.19,3.24,98.2,0.075,0.157,0.987,0.0023,W
5.42,-0.0971,24.83,0.7,98.2,0.077,0.161,0.998,0.0135,W
5.43,0.1724,45.74,-1.72,98.5,0.089,0.149,0.991,0.006,W
5.44,0.6559,-28.46,-3.88,98.1,0.079,0.167,0.986,0.0034,W
5.45,1.1413,-102.25,-6.99,98.5,0.079,0.172,0.99,0.0076,W
5.46,1.1927,43.26,-2.89,98.6,0.082,0.165,0.997,0.0141,W
5.47,0.7976,-4.14,2.38,98.4,0.086,0.16,1.004,0.0208,W
5.48,0.2886,-63.09,4.74,98.2,0.076,0.162,0.997,0.0126,W
5.49,-0.0738,16.15,1.75,98.2,0.082,0.176,1.004,0.0223,W
5.5,-0.2806,-9.07,-2.12,98.7,0.077,0.177,0.995,0.0135,W
5.51,-0.3179,84.72,-6.24,98.5,0.084,0.16,0.999,0.0153,W
5.52,-0.1473,4.77,-4.43,98.3,0.096,0.169,1.012,0.0303,W
5.53,-0.054,1.53,-3.06,98.4,0.076,0.175,1.011,0.029,W
5.54,-0.046,-11.44,0.62,98.1,0.087,0.173,1.002,0.0206,W
5.55,-0.0153,88.65,-1.5,98.4,0.086,0.173,1.012,0.0303,W
5.56,-0.0051,-5.89,1.43,98.3,0.088,0.168,1.012,0.0293,W
5.57,0.0145,-97.93,-1.99,98.4,0.09,0.166,1.024,0.0416,W
5.58,0.0366,112.51,-1.43,97.9,0.083,0.172,1.021,0.0389,W
5.59,0.0515,-10.38,-8.75,98.4,0.096,0.177,1.018,0.0381,W
5.6,-0.0015,-57.98,6.57,98.0,0.089,0.178,1.027,0.046,W
5.61,0.0616,-13.8,2.0,98.4,0.09,0.187,1.022,0.0428,W
5.62,0.1089,21.09,-6.84,98.0,0.089,0.18,1.026,0.0452,W
5.63,0.2104,-46.46,-15.47,98.3,0.075,0.183,1.031,0.0495,W
5.64,0.213,64.0,0.87,98.3,0.094,0.179,1.031,0.0507,W
5.65,0.2397,-34.64,0.34,98.3,0.084,0.193,1.026,0.0475,W
5.66,0.3045,-15.33,-0.65,98.3,0.08,0.185,1.033,0.0523,W
5.67,0.3481,8.76,4.12,98.3,0.088,0.198,1.039,0.0614,W
5.68,0.3286,-7.38,9.09,98.2,0.093,0.188,1.041,0.0621,W
5.69,0.2797,-51.85,-1.44,98.2,0.092,0.195,1.052,0.0738,W
5.7,0.2826,55.2,-1.4,98.3,0.085,0.201,1.042,0.0649,W
5.71,0.1847,-47.32,2.16,98.3,0.091,0.192,1.058,0.0795,W
5.72,0.1985,-11.4,-9.4,98.2,0.092,0.197,1.053,0.075,W
5.73,0.1076,52.44,-4.4,98.1,0.089,0.202,1.054,0.0768,W
5.74,0.0947,49.75,-0.07,98.3,0.092,0.19,1.053,0.0742,W
5.75,0.0899,2.7,-10.11,98.1,0.084,0.203,1.069,0.0911,W
5.76,0.0084,19.86,0.23,98.1,0.088,0.212,1.073,0.0975,W
5.77,0.0127,-58.96,4.82,98.5,0.088,0.208,1.066,0.0894,W
5.78,-0.0086,37.23,0.81,98.4,0.093,0.223,1.081,0.1076,W
5.79,-0.0319,89.68,-12.61,98.1,0.09,0.22,1.079,0.1047,W
5.8,0.0071,-20.05,-4.28,98.1,0.101,0.216,1.081,0.107,W
5.81,-0.0409,60.39,-0.6,98.2,0.103,0.222,1.086,0.1132,W
5.82,-0.0684,-94.72,3.92,98.3,0.086,0.224,1.091,0.1168,W
5.83,-0.0521,-2.97,5.1,98.2,0.099,0.222,1.094,0.1206,W
5.84,-0.0604,89.28,-0.82,98.2,0.095,0.23,1.099,0.1266,W
5.85,-0.0068,-5.79,7.47,98.2,0.095,0.248,1.107,0.1386,W
5.86,-0.0216,-24.17,-4.75,98.6,0.096,0.241,1.115,0.1453,W
5.87,-0.0313,3.99,-1.7,97.8,0.1,0.233,1.105,0.1336,W
5.88,-0.0434,-61.69,2.96,98.3,0.094,0.237,1.117,0.1462,W
5.89,-0.0734,-35.56,-4.85,98.2,0.103,0.256,1.121,0.1541,W
5.9,-0.0308,-35.52,-11.35,98.4,0.095,0.251,1.12,0.1521,W
5.91,-0.0568,6.95,-2.28,98.6,0.094,0.256,1.137,0.1691,W
5.92,-0.0053,-59.72,2.02,98.3,0.102,0.26,1.133,0.1669,W
5.93,-0.0603,43.9,-0.25,98.2,0.102,0.256,1.131,0.1643,W
5.94,-0.0464,-30.61,8.39,98.0,0.092,0.263,1.154,0.1873,W
5.95,-0.045,-65.88,1.62,98.4,0.097,0.263,1.153,0.1864,W
5.96,-0.0133,20.38,1.81,98.4,0.103,0.273,1.148,0.1847,W
5.97,-0.0081,-87.34,4.95,98.3,0.104,0.284,1.151,0.1897,W
5.98,0.062,-0.05,10.33,98.2,0.106,0.289,1.165,0.2045,W
5.99,0.0795,107.15,-3.55,98.3,0.098,0.279,1.172,0.2088,W
6.0,0.0714,-6.55,4.89,98.5,0.108,0.28,1.178,0.216,W
6.01,0.1346,11.2,0.2,98.2,0.119,0.285,1.188,0.2274,W
6.02,0.0722,-28.11,2.33,98.2,0.111,0.282,1.178,0.2159,W
6.03,0.0603,-24.84,8.75,98.5,0.108,0.302,1.199,0.2413,W
6.04,0.043,-10.82,8.03,98.3,0.108,0.302,1.191,0.2335,W
6.05,-0.0442,-52.67,6.47,98.3,0.099,0.307,1.187,0.2305,W
6.06,-0.0818,109.38,12.2,98.3,0.098,0.306,1.199,0.241,W
6.07,-0.0628,-43.34,4.61,98.2,0.104,0.315,1.21,0.2549,W
6.08,-0.0238,-29.13,-7.56,98.4,0.117,0.315,1.207,0.2533,W
6.09,-0.042,26.57,1.63,98.4,0.114,0.32,1.216,0.2626,W
6.1,-0.0688,1.78,2.93,98.3,0.108,0.314,1.221,0.2649,W
6.11,-0.0794,-28.36,6.19,98.5,0.109,0.324,1.227,0.2738,W
6.12,-0.1654,9.81,3.6,98.4,0.119,0.325,1.233,0.2803,W
6.13,-0.1227,55.5,-0.34,98.3,0.111,0.329,1.239,0.2869,W
6.14,0.2052,-31.13,-4.65,98.3,0.108,0.332,1.241,0.2891,W
6.15,0.6647,31.5,0.47,98.1,0.113,0.329,1.241,0.2892,W
6.16,1.1185,-47.82,-2.31,98.3,0.124,0.339,1.241,0.2927,W
6.17,1.1322,33.44,-2.43,98.3,0.125,0.34,1.258,0.3094,W
6.18,0.7328,-25.87,-3.78,98.3,0.117,0.345,1.271,0.3225,W
6.19,0.1989,22.27,7.22,98.5,0.109,0.35,1.26,0.3124,W
6.2,-0.168,24.67,-1.27,98.6,0.111,0.341,1.267,0.3167,W
6.21,-0.3058,-18.42,9.66,98.2,0.116,0.343,1.272,0.3223,W
6.22,-0.343,-25.23,-3.59,98.2,0.108,0.346,1.27,0.3212,W
6.23,-0.2603,-29.82,-1.0,98.2,0.117,0.353,1.285,0.3374,W
6.24,-0.1219,4.76,0.72,98.4,0.126,0.356,1.273,0.3282,W
6.25,-0.0897,-37.67,1.21,98.5,0.116,0.366,1.286,0.3422,W
6.26,-0.0437,25.22,-0.4,98.1,0.109,0.367,1.289,0.3444,W
6.27,-0.0413,5.27,-7.35,98.4,0.119,0.364,1.289,0.345,W
6.28,-0.0298,-102.22,1.08,98.0,0.127,0.372,1.298,0.3561,W
6.29,-0.0362,-24.99,1.5,98.5,0.119,0.375,1.286,0.3447,W
6.3,0.0185,3.29,-8.02,98.1,0.119,0.366,1.301,0.3563,W
6.31,0.0254,69.05,1.95,98.4,0.112,0.368,1.309,0.3638,W
6.32,0.0647,-13.68,5.36,98.4,0.12,0.37,1.296,0.3533,W
6.33,0.1395,-61.99,1.98,98.4,0.122,0.369,1.307,0.3637,W
6.34,0.1728,-70.25,-0.91,98.2,0.128,0.375,1.313,0.3715,W
6.35,0.1973,77.0,2.41,98.4,0.124,0.381,1.299,0.3598,W
6.36,0.2525,68.81,-3.15,98.3,0.109,0.371,1.315,0.3706,W
6.37,0.2982,79.25,2.53,98.5,0.116,0.38,1.305,0.3638,W
6.38,0.322,-35.9,5.18,98.3,0.118,0.386,1.311,0.3723,W
6.39,0.295,20.37,9.49,98.1,0.124,0.379,1.308,0.3668,W
6.4,0.29,32.39,1.63,98.4,0.113,0.383,1.311,0.371,W
6.41,0.233,1.2,-1.02,98.3,0.119,0.377,1.317,0.3753,W
6.42,0.2224,12.28,0.98,98.2,0.119,0.376,1.308,0.3662,W
6.43,0.1547,66.42,5.13,98.5,0.124,0.378,1.314,0.3726,W
6.44,0.1077,35.18,-4.08,98.0,0.123,0.37,1.308,0.3652,W
6.45,0.0687,64.95,0.13,98.2,0.118,0.382,1.303,0.3628,W
6.46,0.0263,41.13,-3.32,98.5,0.121,0.376,1.311,0.3695,W
6.47,-0.0016,13.25,-0.38,98.2,0.123,0.367,1.309,0.3649,W
6.48,-0.0231,-75.39,4.24,98.2,0.122,0.374,1.314,0.372,W
6.49,-0.0038,59.58,4.69,98.5,0.125,0.372,1.301,0.3587,W
6.5,-0.0122,47.5,-0.32,98.1,0.108,0.364,1.297,0.351,W
6.51,-0.0314,-34.68,2.02,98.4,0.113,0.371,1.299,0.356,W
6.52,-0.0162,28.22,7.6,98.4,0.119,0.366,1.299,0.3549,W
6.53,-0.0639,-38.9,2.68,98.4,0.12,0.37,1.292,0.3492,W
6.54,-0.0239,-22.13,-0.42,98.2,0.123,0.373,1.297,0.3549,W
6.55,-0.0349,3.78,4.24,98.2,0.12,0.368,1.294,0.3503,W
6.56,-0.022,-17.38,2.48,98.4,0.119,0.357,1.287,0.3407,W
6.57,-0.0326,-12.82,-1.98,98.1,0.117,0.352,1.289,0.3415,W
6.58,-0.058,-35.44,10.82,98.1,0.124,0.353,1.267,0.3211,W
6.59,-0.023,-42.7,7.41,98.3,0.117,0.359,1.283,0.3378,W
6.6,-0.037,90.78,-2.48,98.2,0.12,0.354,1.271,0.3246,W
6.61,-0.0603,1.02,2.5,98.5,0.117,0.353,1.273,0.3261,W
6.62,-0.0748,-74.81,1.11,98.7,0.117,0.35,1.271,0.3232,W
6.63,-0.0602,171.04,5.4,98.5,0.12,0.335,1.261,0.3107,W
6.64,-0.0464,-16.76,-4.25,98.3,0.112,0.346,1.266,0.3167,W
6.65,-0.02,4.99,-11.38,98.2,0.114,0.344,1.254,0.3055,W
6.66,0.0216,2.74,-1.62,98.2,0.106,0.332,1.249,0.2971,W
6.67,0.0104,41.34,4.17,98.3,0.11,0.333,1.252,0.2996,W
6.68,0.0398,-33.5,-6.09,98.4,0.115,0.34,1.244,0.2946,W
6.69,0.0634,1.77,-5.42,98.2,0.11,0.329,1.242,0.29,W
6.7,0.0763,-40.39,-6.02,98.1,0.108,0.323,1.24,0.2862,W
6.71,0.0724,-43.08,-2.97,98.2,0.103,0.317,1.231,0.2751,W
6.72,0.0482,51.72,-5.65,98.5,0.111,0.33,1.231,0.2796,W
6.73,-0.0012,54.32,10.61,98.4,0.105,0.32,1.221,0.2664,W
6.74,-0.0179,-45.38,1.91,98.0,0.107,0.301,1.223,0.2644,W
6.75,-0.0019,21.69,10.23,98.6,0.103,0.309,1.212,0.2553,W
6.76,-0.0099,15.21,-1.01,98.3,0.107,0.313,1.208,0.2525,W
6.77,-0.0346,-6.2,-7.8,98.1,0.105,0.306,1.208,0.2511,W
6.78,-0.054,-95.7,-2.98,98.3,0.107,0.301,1.206,0.2475,W
6.79,-0.0125,-17.59,-1.11,98.1,0.102,0.292,1.188,0.2278,W
6.8,-0.0204,0.4,-8.58,98.3,0.108,0.299,1.193,0.2349,W
6.81,-0.0976,-6.47,-1.14,98.3,0.108,0.296,1.181,0.2217,W
6.82,-0.1172,-47.98,-4.61,98.1,0.103,0.284,1.177,0.2152,W
6.83,-0.0334,11.67,-3.14,97.9,0.103,0.285,1.171,0.2095,W
6.84,0.3182,83.38,-7.15,98.1,0.102,0.284,1.172,0.2098,W
6.85,0.8163,-7.16,7.76,98.3,0.094,0.271,1.156,0.1908,W
6.86,1.1942,-35.48,3.38,98.3,0.102,0.276,1.158,0.1947,W
6.87,1.1026,28.27,10.85,98.1,0.108,0.269,1.149,0.1851,W
6.88,0.6156,-5.78,0.98,98.0,0.095,0.268,1.147,0.182,W
6.89,0.1279,-38.81,-1.95,98.4,0.091,0.266,1.146,0.1801,W
6.9,-0.17,40.2,2.68,98.2,0.098,0.265,1.134,0.1682,W
6.91,-0.3307,45.19,-7.69,98.3,0.09,0.249,1.135,0.1653,W
6.92,-0.3031,61.76,4.9,98.4,0.097,0.25,1.129,0.1603,W
6.93,-0.1516,37.1,3.63,98.5,0.097,0.259,1.118,0.1513,W
6.94,-0.078,68.36,1.16,98.2,0.096,0.25,1.122,0.1537,W
6.95,-0.0323,31.18,-6.54,98.7,0.094,0.235,1.106,0.1345,W
6.96,-0.0381,-85.38,-1.58,98.1,0.09,0.238,1.11,0.1383,W
6.97,0.0205,19.85,2.75,98.3,0.095,0.238,1.11,0.1392,W
6.98,0.031,-103.25,-7.12,97.9,0.093,0.236,1.107,0.1357,W
6.99,0.0419,-62.43,6.48,98.3,0.094,0.231,1.089,0.1174,W
7.0,0.0935,-40.01,7.81,98.2,0.097,0.22,1.086,0.112,W
7.01,0.1158,40.75,4.33,98.3,0.097,0.225,1.089,0.1163,W
7.02,0.1325,54.84,-5.44,98.0,0.1,0.223,1.082,0.109,W
7.03,0.1515,-18.41,-0.8,98.3,0.092,0.224,1.084,0.1104,W
7.04,0.212,-13.85,7.12,98.3,0.088,0.22,1.065,0.091,W
7.05,0.2606,-8.7,-0.34,98.4,0.094,0.213,1.067,0.0922,W
7.06,0.295,-26.58,2.98,98.5,0.098,0.209,1.057,0.0821,W
7.07,0.3664,43.4,-3.84,98.3,0.091,0.213,1.067,0.0918,W
7.08,0.3341,-10.97,-5.5,98.3,0.083,0.213,1.061,0.085,W
7.09,0.3542,6.15,4.23,98.0,0.093,0.2,1.052,0.0752,W
7.1,0.3315,2.94,-4.94,98.4,0.091,0.198,1.056,0.0779,W
7.11,0.2772,-67.57,1.42,98.2,0.09,0.204,1.052,0.0752,W
7.12,0.2457,73.4,2.66,98.3,0.087,0.201,1.051,0.0736,W
7.13,0.1828,45.64,0.14,98.3,0.088,0.193,1.052,0.0732,W
7.14,0.1592,-95.8,-3.09,98.4,0.095,0.19,1.045,0.0661,W
7.15,0.1081,-5.09,7.34,98.3,0.088,0.192,1.051,0.0722,W
7.16,0.1036,-106.24,-8.36,98.3,0.09,0.194,1.046,0.0679,W
7.17,0.0462,-52.15,-7.22,98.2,0.085,0.185,1.032,0.0523,W
7.18,0.0516,-12.73,-7.3,98.1,0.085,0.184,1.027,0.047,W
7.19,0.0197,88.52,-10.28,98.1,0.088,0.181,1.038,0.0573,W
7.2,0.0329,-23.89,-4.11,98.2,0.084,0.181,1.038,0.0565,W
7.21,0.0025,58.87,-0.33,98.5,0.082,0.188,1.028,0.0481,W
7.22,0.0148,-4.94,4.96,98.3,0.099,0.18,1.029,0.0495,W
7.23,-0.0007,-4.61,1.72,98.2,0.09,0.183,1.019,0.0392,W
7.24,0.0352,-59.39,-0.53,98.0,0.087,0.171,1.012,0.0299,W
7.25,-0.0071,-6.56,-0.67,98.1,0.085,0.172,1.017,0.035,W
7.26,-0.029,-86.05,-4.6,98.6,0.08,0.178,1.018,0.0364,W
7.27,0.0087,50.47,-1.73,98.1,0.085,0.181,1.008,0.0273,W
7.28,0.0152,-4.27,4.62,98.3,0.086,0.176,1.008,0.0268,W
7.29,0.0151,-22.72,-3.77,98.3,0.07,0.169,1.008,0.0243,W
7.3,0.0146,29.66,-2.03,98.2,0.075,0.163,1.0,0.0162,W
7.31,0.0135,52.96,1.26,98.5,0.081,0.17,0.998,0.0156,W
7.32,0.0568,-16.26,1.58,98.0,0.086,0.158,1.01,0.0261,W
7.33,0.0149,61.99,2.49,98.1,0.088,0.163,1.001,0.018,W
7.34,0.021,-89.69,-4.82,97.9,0.088,0.162,1.006,0.0222,W
7.35,0.0522,53.65,1.25,98.1,0.08,0.155,0.994,0.0093,W
7.36,0.1184,93.62,1.02,98.1,0.09,0.163,1.0,0.0174,W
7.37,0.1352,-49.34,-1.38,98.1,0.08,0.165,0.988,0.0048,W
7.38,0.1571,25.98,-6.24,98.1,0.08,0.163,0.997,0.0137,W
7.39,0.2144,1.65,-1.85,98.3,0.076,0.175,0.997,0.015,W
7.4,0.1522,-87.23,3.51,98.5,0.08,0.161,0.989,0.0052,W
7.41,0.1744,85.68,2.15,98.4,0.084,0.152,0.987,0.0023,W
7.42,0.0789,6.81,3.18,98.3,0.083,0.162,1.001,0.0177,W
7.43,0.0232,3.03,-7.23,98.1,0.082,0.156,0.987,0.0025,W
7.44,0.0558,22.57,-4.47,97.9,0.084,0.157,0.989,0.0047,W
7.45,0.0287,9.14,-3.77,98.2,0.083,0.16,0.99,0.0065,W
7.46,0.0321,15.1,0.09,98.4,0.081,0.156,0.988,0.0035,W
7.47,-0.0037,38.93,0.33,97.8,0.083,0.152,0.993,0.0081,W
7.48,0.0397,-103.28,-3.1,98.1,0.075,0.154,0.983,0.0022,W
7.49,0.0056,-1.12,1.72,98.3,0.081,0.16,0.994,0.0104,W
7.5,-0.065,59.13,1.6,98.2,0.078,0.149,0.989,0.0028,W
7.51,-0.0669,-98.3,-1.11,98.2,0.082,0.15,0.992,0.0063,W
7.52,0.1482,9.03,-3.76,98.1,0.075,0.158,0.994,0.0095,W
7.53,0.56,26.89,-2.38,98.3,0.077,0.156,0.984,0.0003,W
7.54,1.048,14.64,2.39,98.0,0.081,0.145,0.979,0.0072,W
7.55,1.2824,21.84,12.72,98.3,0.081,0.151,0.983,0.0023,W
7.56,1.0125,-67.16,3.42,98.1,0.084,0.147,0.985,0.0008,W
7.57,0.4511,-23.6,6.18,97.9,0.085,0.151,0.985,0.0001,W
7.58,0.061,-68.78,3.38,98.3,0.084,0.153,0.973,0.0119,W
7.59,-0.2003,-67.46,-7.81,98.4,0.08,0.157,0.987,0.003,W
7.6,-0.2525,19.15,-8.03,98.5,0.083,0.157,0.979,0.0046,W
7.61,-0.194,-14.9,-1.7,98.3,0.087,0.157,0.986,0.002,W
7.62,-0.0955,43.38,-6.88,98.3,0.077,0.152,0.991,0.0058,W
7.63,-0.0216,10.95,4.72,98.1,0.084,0.146,0.989,0.0034,W
7.64,0.0213,19.06,-7.03,98.2,0.076,0.148,0.983,0.0026,W
7.65,0.0611,-8.89,1.3,98.0,0.086,0.147,0.986,0.0008,W
7.66,0.07,2.68,-3.75,98.3,0.084,0.151,0.98,0.0048,W
7.67,0.0478,-19.11,2.04,98.3,0.082,0.146,0.983,0.0028,W
7.68,0.0752,-26.03,-8.43,98.3,0.084,0.154,0.984,0.0006,W
7.69,0.1473,-6.94,-7.93,98.3,0.084,0.15,0.983,0.002,W
7.7,0.1376,43.6,5.75,98.1,0.086,0.154,0.983,0.0017,W
7.71,0.1635,23.43,8.16,98.2,0.072,0.156,0.972,0.0132,W
7.72,0.2551,-42.97,9.85,98.2,0.079,0.156,0.986,0.0009,W
7.73,0.2633,-43.79,5.25,97.9,0.081,0.139,0.984,0.0034,W
7.74,0.3087,-89.9,7.16,98.3,0.088,0.15,0.971,0.0136,W
7.75,0.4012,-12.38,1.23,98.2,0.086,0.152,0.978,0.0062,W
7.76,0.3855,-0.95,-0.75,98.2,0.077,0.157,0.975,0.0098,W
7.77,0.4043,9.39,2.05,98.2,0.085,0.147,0.977,0.0082,W
7.78,0.3927,80.76,-3.97,98.3,0.071,0.143,0.973,0.0136,W
7.79,0.352,-39.71,4.78,98.3,0.077,0.16,0.978,0.0058,W
7.8,0.3123,30.59,2.12,98.1,0.083,0.152,0.979,0.0059,W
7.81,0.279,18.16,3.53,98.3,0.079,0.148,0.977,0.0088,W
7.82,0.246,-14.21,-0.85,98.2,0.091,0.15,0.981,0.0031,W
7.83,0.1965,-3.46,-2.58,97.9,0.084,0.144,0.98,0.0056,W
7.84,0.183,12.13,-5.87,98.1,0.067,0.149,0.979,0.0073,W
7.85,0.087,-10.49,6.69,98.3,0.078,0.152,0.977,0.0079,W
7.86,0.0692,-30.49,3.61,98.3,0.075,0.15,0.98,0.0063,W
7.87,0.0948,38.53,1.08,98.4,0.087,0.151,0.975,0.0092,W
7.88,0.0953,60.44,-0.73,98.1,0.08,0.151,0.981,0.0039,W
7.89,0.0397,29.12,-3.77,98.3,0.075,0.152,0.98,0.0052,W
7.9,0.0296,-69.27,4.08,98.3,0.084,0.146,0.975,0.0104,W
7.91,0.0613,-70.7,-1.35,98.2,0.079,0.153,0.98,0.0051,W
7.92,0.0909,77.68,-0.79,98.1,0.083,0.155,0.98,0.0042,W
7.93,0.0139,64.13,0.64,98.2,0.085,0.154,0.985,0.0002,W
7.94,0.0374,42.4,6.52,98.1,0.078,0.147,0.973,0.0133,W
7.95,0.0523,-5.45,7.83,98.2,0.079,0.153,0.978,0.0069,W
7.96,0.029,-45.06,-2.5,98.3,0.091,0.155,0.983,0.0004,W
7.97,0.0367,-33.19,2.76,98.1,0.079,0.148,0.98,0.0057,W
7.98,0.067,-1.53,2.33,97.9,0.078,0.154,0.983,0.0016,W
7.99,0.067,72.64,3.11,98.1,0.085,0.143,0.977,0.0088,W
8.0,0.052,-41.22,0.39,98.1,0.074,0.153,0.99,0.0044,W
8.01,0.0279,12.76,-2.51,98.0,0.077,0.149,0.979,0.0064,W
8.02,0.084,-82.73,2.21,98.3,0.082,0.153,0.978,0.0067,W
8.03,0.0484,7.52,-2.66,98.4,0.076,0.142,0.968,0.019,W
8.04,0.0519,-72.7,8.38,98.1,0.073,0.154,0.987,0.0019,W
8.05,0.0902,-3.99,10.64,98.1,0.087,0.15,0.976,0.0087,W
8.06,0.1001,-21.77,-0.14,98.1,0.08,0.141,0.963,0.0238,W
8.07,0.1586,-26.31,5.25,98.1,0.08,0.146,0.975,0.0105,W
8.08,0.1644,-40.12,-4.93,98.1,0.079,0.15,0.981,0.0041,W
8.09,0.1801,-63.97,6.24,98.1,0.079,0.155,0.984,0.0011,W
8.1,0.2241,98.45,-1.91,98.3,0.066,0.148,0.979,0.0074,W
8.11,0.1868,-29.12,-3.57,98.4,0.073,0.157,0.98,0.0046,W
8.12,0.1374,81.37,-2.66,98.2,0.077,0.151,0.979,0.0068,W
8.13,0.1077,19.62,0.2,98.0,0.088,0.15,0.98,0.005,W
8.14,0.0995,-18.36,-7.99,98.1,0.078,0.169,0.987,0.0047,W
8.15,0.0787,-32.46,1.79,98.2,0.086,0.148,0.982,0.0035,W
8.16,0.0321,-15.62,6.8,98.4,0.078,0.147,0.975,0.0111,W
8.17,0.0463,-13.29,-8.67,98.3,0.077,0.143,0.975,0.0113,W
8.18,0.0569,71.14,8.02,98.2,0.083,0.158,0.988,0.0037,W
8.19,0.0098,-24.39,-2.83,98.1,0.08,0.153,0.974,0.0107,W
8.2,-0.0153,93.07,11.05,98.1,0.081,0.153,0.987,0.0024,W
8.21,-0.0827,-29.24,-2.44,98.4,0.078,0.148,0.974,0.0117,W
8.22,0.0319,0.49,2.27,98.3,0.08,0.16,0.975,0.0086,W
8.23,0.343,96.11,8.57,98.2,0.084,0.16,0.98,0.0032,W
8.24,0.8448,-5.73,-1.36,97.8,0.076,0.152,0.976,0.0094,W
8.25,1.2391,152.51,-1.65,98.1,0.077,0.146,0.975,0.0115,W
8.26,1.2057,-2.54,1.74,98.2,0.075,0.151,0.984,0.0018,W
8.27,0.7182,46.72,-4.91,98.1,0.073,0.161,0.98,0.0046,W
8.28,0.2939,27.08,-5.17,98.1,0.076,0.146,0.98,0.0067,W
8.29,-0.0565,-17.29,-1.95,98.2,0.087,0.147,0.993,0.008,W
8.3,-0.2433,63.82,-1.84,98.1,0.086,0.145,0.98,0.0057,W
8.31,-0.1984,-36.69,-6.4,98.1,0.083,0.148,0.983,0.0025,W
8.32,-0.1208,-46.52,-6.87,98.5,0.079,0.152,0.975,0.0104,W
8.33,-0.0111,70.23,-5.29,98.4,0.083,0.154,0.977,0.0074,W
8.34,0.0237,39.78,-8.58,98.0,0.076,0.149,0.979,0.0067,W
8.35,0.0552,-86.58,5.29,98.2,0.087,0.148,0.982,0.003,W
8.36,0.0888,-19.32,-0.04,98.2,0.08,0.156,0.979,0.0052,W
8.37,0.0878,67.77,6.57,98.3,0.078,0.142,0.976,0.011,W
8.38,0.0713,49.44,-7.65,98.3,0.074,0.153,0.974,0.0114,W
8.39,0.1462,-33.61,-1.84,98.3,0.08,0.149,0.978,0.0069,W
8.4,0.1289,-13.69,-2.91,98.0,0.08,0.152,0.974,0.0113,W
8.41,0.1648,2.43,0.51,98.3,0.081,0.159,0.981,0.0029,W
8.42,0.2545,-85.58,-1.09,98.2,0.078,0.15,0.979,0.0065,W
8.43,0.2698,1.17,3.06,98.2,0.079,0.148,0.977,0.009,W
8.44,0.3003,-0.16,1.36,98.1,0.081,0.143,0.978,0.0083,W
8.45,0.3054,47.56,-11.1,98.2,0.082,0.154,0.992,0.0071,W
8.46,0.4041,-49.59,-5.83,98.1,0.082,0.15,0.976,0.0095,W
8.47,0.4057,-26.02,-5.28,98.2,0.084,0.155,0.988,0.0039,W
8.48,0.3766,34.42,-3.3,98.3,0.082,0.151,0.979,0.0064,W
8.49,0.3997,-0.08,4.91,98.2,0.088,0.152,0.987,0.0028,W
8.5,0.3345,4.73,3.37,98.2,0.086,0.146,0.98,0.0051,W
8.51,0.2949,-37.1,5.11,98.3,0.089,0.151,0.971,0.0132,W
8.52,0.2576,2.87,4.19,98.1,0.074,0.145,0.98,0.0069,W
8.53,0.2171,-30.46,0.89,98.1,0.074,0.15,0.973,0.0129,W
8.54,0.1302,-90.76,5.42,98.3,0.084,0.156,0.98,0.0044,W
8.55,0.1183,77.66,3.5,98.0,0.073,0.149,0.983,0.0027,W
8.56,0.0769,65.64,-1.88,98.1,0.069,0.14,0.981,0.0067,W
8.57,0.0424,11.12,-2.65,97.9,0.08,0.157,0.98,0.0043,W
8.58,0.0728,56.62,-10.37,98.5,0.091,0.152,0.986,0.0021,W
8.59,0.0284,-2.64,-7.64,98.3,0.079,0.144,0.976,0.0103,W
8.6,0.0538,7.45,-4.01,98.3,0.073,0.155,0.977,0.0077,W
8.61,0.0128,26.94,6.07,98.2,0.079,0.157,0.979,0.0052,W
8.62,0.0382,-82.3,7.81,98.0,0.084,0.149,0.976,0.0092,W
8.63,0.022,-9.17,-6.56,97.9,0.078,0.154,0.984,0.0008,W
8.64,0.0248,16.32,1.2,98.2,0.079,0.152,0.978,0.0076,W
8.65,0.0049,0.23,-4.03,98.2,0.075,0.162,0.982,0.0019,W
8.66,0.0283,-43.74,8.77,98.3,0.085,0.149,0.982,0.0032,W
8.67,-0.005,-17.64,3.7,98.1,0.078,0.149,0.978,0.0074,W
8.68,0.0656,100.74,-10.29,98.1,0.068,0.147,0.98,0.0072,W
8.69,0.0489,-39.58,-9.63,97.8,0.076,0.143,0.981,0.0061,W
8.7,-0.0086,-62.53,-0.22,98.2,0.069,0.146,0.972,0.015,W
8.71,0.0113,-3.2,-8.73,98.1,0.079,0.151,0.986,0.0005,W
8.72,0.0041,11.5,2.26,98.1,0.077,0.15,0.983,0.0026,W
8.73,0.0064,-37.94,5.45,98.1,0.083,0.15,0.975,0.0104,W
8.74,0.0465,-74.18,2.57,97.9,0.085,0.147,0.974,0.0115,W
8.75,0.0476,-39.76,0.58,98.0,0.085,0.149,0.973,0.0121,W
8.76,0.0633,23.49,10.61,98.1,0.085,0.155,0.985,0.0009,W
8.77,0.1406,-17.8,-4.75,98.3,0.082,0.154,0.978,0.0066,W
8.78,0.1501,37.46,1.78,98.3,0.077,0.151,0.978,0.0079,W
8.79,0.185,-65.9,-5.71,98.0,0.077,0.145,0.984,0.0022,W
8.8,0.1368,40.73,0.68,98.1,0.082,0.151,0.979,0.0064,W
8.81,0.0827,44.89,-1.13,98.4,0.079,0.151,0.98,0.0055,W
8.82,0.0751,-41.68,-3.57,98.3,0.073,0.142,0.981,0.0059,W
8.83,0.047,23.7,2.01,97.9,0.081,0.148,0.981,0.0045,W
8.84,0.0135,3.43,-6.9,97.9,0.083,0.149,0.987,0.0019,W
8.85,0.0388,25.77,-7.95,98.1,0.081,0.144,0.982,0.0046,W
8.86,0.0025,-15.38,1.64,98.1,0.082,0.149,0.987,0.0017,W
8.87,-0.0147,-23.54,7.48,98.0,0.088,0.15,0.973,0.0114,W
8.88,0.0397,-12.16,5.16,98.3,0.083,0.149,0.976,0.009,W
8.89,-0.0037,-63.0,-0.99,98.3,0.088,0.143,0.977,0.0091,W
8.9,-0.0826,19.81,7.44,98.0,0.065,0.14,0.981,0.007,W
8.91,-0.1336,-41.99,0.28,98.1,0.083,0.153,0.983,0.0022,W
8.92,0.0343,48.06,1.65,97.9,0.075,0.143,0.981,0.0057,W
8.93,0.4604,-87.31,3.37,97.9,0.082,0.152,0.974,0.0111,W
8.94,0.9237,-50.26,4.92,98.2,0.082,0.149,0.986,0.001,W
8.95,1.2255,17.73,3.14,97.9,0.08,0.145,0.984,0.0022,W
8.96,1.0474,47.38,-5.64,98.2,0.081,0.16,0.968,0.0157,W
8.97,0.5118,-74.08,-5.54,98.3,0.076,0.145,0.987,0.0005,W
8.98,0.0944,-6.68,2.77,98.1,0.078,0.153,0.982,0.0031,W
8.99,-0.2212,25.64,-4.26,97.8,0.086,0.159,0.98,0.0032,W
9.0,-0.2998,7.01,-0.69,98.1,0.079,0.148,0.969,0.0164,W
9.01,-0.2694,56.84,7.53,98.1,0.079,0.151,0.986,0.0004,W
9.02,-0.1485,-20.57,-3.47,98.4,0.09,0.152,0.976,0.0084,W
9.03,-0.0675,-81.96,-0.59,98.1,0.08,0.152,0.981,0.0037,W
9.04,-0.0008,65.06,-14.28,98.2,0.09,0.156,0.983,0.0001,W
9.05,-0.0306,-51.6,6.12,98.2,0.074,0.15,0.976,0.0096,W
9.06,-0.0036,2.38,3.89,98.0,0.082,0.144,0.976,0.0099,W
9.07,-0.028,26.0,-5.5,98.2,0.088,0.146,0.981,0.0038,W
9.08,0.0184,-27.27,3.31,98.2,0.073,0.15,0.982,0.0042,W
9.09,0.0714,-50.49,2.49,98.1,0.078,0.146,0.98,0.0063,W
9.1,0.0557,-49.79,7.93,98.1,0.082,0.155,0.972,0.0122,W
9.11,0.1047,-36.61,4.02,98.1,0.087,0.149,0.969,0.016,W
9.12,0.1767,72.29,1.01,98.2,0.081,0.144,0.979,0.0071,W
9.13,0.2286,-12.85,2.74,98.2,0.077,0.148,0.984,0.0021,W
9.14,0.2787,-63.38,3.06,98.0,0.073,0.155,0.984,0.0008,W
9.15,0.331,-64.24,-6.92,98.0,0.085,0.153,0.978,0.0063,W
9.16,0.2907,21.96,4.77,98.1,0.086,0.155,0.976,0.0077,W
9.17,0.3375,12.23,-5.63,98.2,0.083,0.155,0.985,0.0004,W
9.18,0.3274,-81.14,-0.07,98.1,0.082,0.147,0.982,0.0039,W
9.19,0.3106,59.94,4.82,98.1,0.081,0.15,0.986,0.0003,W
9.2,0.2644,12.43,-9.94,98.2,0.076,0.149,0.981,0.0044,W
9.21,0.247,-43.77,-7.42,98.0,0.08,0.148,0.98,0.0055,W
9.22,0.1667,-40.8,-2.83,98.0,0.083,0.144,0.973,0.0133,W
9.23,0.1398,49.12,-3.37,98.0,0.076,0.146,0.984,0.0026,W
9.24,0.0884,12.52,8.03,98.1,0.083,0.151,0.981,0.0036,W
9.25,0.0388,54.76,-0.37,97.8,0.083,0.144,0.975,0.0106,W
9.26,0.0576,4.92,2.31,98.3,0.091,0.154,0.979,0.0045,W
9.27,0.029,48.67,-1.77,98.1,0.082,0.152,0.978,0.0072,W
9.28,-0.0226,1.32,5.9,97.9,0.084,0.153,0.974,0.0103,W
9.29,-0.0192,39.27,4.74,98.0,0.076,0.155,0.98,0.0046,W
9.3,-0.0018,36.88,-6.21,98.2,0.076,0.152,0.982,0.0029,W
9.31,-0.0588,0.11,1.83,98.2,0.081,0.147,0.976,0.0094,W
9.32,-0.0087,-86.79,2.24,97.7,0.084,0.147,0.989,0.0035,W
9.33,-0.0348,-6.06,2.84,98.2,0.071,0.154,0.98,0.0051,W
9.34,-0.0345,-19.8,-3.44,98.0,0.081,0.155,0.982,0.0023,W
9.35,-0.0306,-94.16,-2.54,98.1,0.082,0.149,0.981,0.0045,W
9.36,-0.0421,33.11,-2.22,97.9,0.09,0.154,0.979,0.005,W
9.37,-0.0321,-59.45,-3.21,98.1,0.084,0.153,0.987,0.0027,W
9.38,-0.0079,90.11,-1.21,98.1,0.073,0.154,0.977,0.0084,W
9.39,-0.0051,-10.92,0.94,97.9,0.08,0.148,0.98,0.006,W
9.4,-0.0635,50.88,8.2,97.9,0.08,0.15,0.981,0.0045,W
9.41,-0.015,-123.56,0.43,98.2,0.083,0.141,0.981,0.006,W
9.42,-0.0111,4.86,-5.87,97.8,0.084,0.147,0.982,0.0035,W
9.43,-0.0358,-46.94,8.22,98.1,0.077,0.156,0.98,0.0052,W
9.44,-0.0072,-57.49,2.57,98.2,0.074,0.144,0.983,0.0041,W
9.45,-0.0305,38.16,-6.79,98.2,0.08,0.149,0.982,0.0039,W
9.46,-0.016,28.15,2.76,98.1,0.077,0.146,0.978,0.0085,W
9.47,-0.0085,2.16,-3.67,98.3,0.072,0.151,0.983,0.0028,W
9.48,0.0569,-26.0,5.53,98.1,0.079,0.147,0.987,0.0006,W
9.49,0.0601,-33.81,17.85,97.9,0.077,0.157,0.982,0.0027,W
9.5,0.104,65.79,6.74,98.3,0.083,0.157,0.993,0.0083,W
9.51,0.0303,-2.59,-3.66,98.2,0.072,0.143,0.984,0.0033,W
9.52,0.0412,1.49,5.88,98.1,0.079,0.151,0.975,0.0101,W
9.53,0.0503,-68.21,-7.6,98.1,0.078,0.153,0.971,0.0142,W
9.54,0.0393,1.11,-3.54,98.0,0.087,0.146,0.98,0.0049,W
9.55,-0.0195,57.66,-2.59,97.9,0.086,0.142,0.983,0.0033,W
9.56,-0.0767,-21.78,-6.38,98.4,0.081,0.151,0.984,0.0008,W
9.57,-0.0542,-26.53,0.45,97.8,0.083,0.146,0.986,0.0,W
9.58,-0.0178,31.98,0.93,97.9,0.075,0.151,0.988,0.0021,W
9.59,-0.0437,97.42,-2.37,98.0,0.077,0.153,0.977,0.0082,W
9.6,-0.0507,1.06,-5.45,98.4,0.072,0.143,0.978,0.0094,W
9.61,-0.0748,-75.05,6.05,98.0,0.078,0.158,0.983,0.0015,W
9.62,-0.1365,10.6,0.25,98.1,0.073,0.15,0.985,0.0006,W
9.63,-0.0811,26.36,-0.71,98.2,0.084,0.149,0.983,0.0027,W
9.64,0.2639,6.0,3.96,98.1,0.083,0.147,0.98,0.0056,W
9.65,0.8098,-20.45,3.56,98.0,0.073,0.142,0.981,0.0062,W
9.66,1.195,-14.82,5.98,98.0,0.079,0.144,0.985,0.0019,W
9.67,1.0288,-20.43,7.63,97.9,0.081,0.148,0.981,0.0048,W
9.68,0.5897,57.08,-8.05,98.0,0.081,0.156,0.981,0.0028,W
9.69,0.0967,83.23,0.03,97.9,0.077,0.152,0.977,0.0086,W
9.7,-0.1979,25.2,1.04,97.9,0.08,0.157,0.982,0.0019,W
9.71,-0.2997,13.76,2.24,98.3,0.088,0.144,0.981,0.0048,W
9.72,-0.2654,-15.41,-6.33,98.1,0.076,0.151,0.973,0.0122,W
9.73,-0.1968,136.06,1.67,97.9,0.075,0.156,0.977,0.0074,W
9.74,-0.0657,-42.4,8.2,98.1,0.084,0.151,0.972,0.0127,W
9.75,-0.0309,63.31,-0.82,98.1,0.086,0.145,0.976,0.0096,W
9.76,-0.0303,33.29,2.09,98.0,0.083,0.148,0.977,0.0083,W
9.77,-0.0669,-48.7,-3.39,98.3,0.082,0.147,0.99,0.0037,W
9.78,0.0114,-16.57,-4.15,98.1,0.084,0.154,0.979,0.0054,W
9.79,-0.0157,-23.11,6.85,98.1,0.071,0.142,0.98,0.0074,W
9.8,0.0372,36.42,0.98,98.3,0.081,0.152,0.978,0.0071,W
9.81,0.0293,-3.27,8.75,98.1,0.086,0.15,0.985,0.0001,W
9.82,0.0783,-1.04,-2.29,98.4,0.079,0.143,0.978,0.0081,W
9.83,0.1291,46.61,-2.73,98.5,0.077,0.15,0.982,0.0033,W
9.84,0.1564,-62.01,-0.8,98.1,0.076,0.147,0.986,0.0002,W
9.85,0.1816,-20.81,-5.28,97.9,0.08,0.155,0.983,0.0021,W
9.86,0.2814,6.34,0.87,98.0,0.075,0.147,0.974,0.0119,W
9.87,0.2793,-96.66,-2.81,97.9,0.083,0.151,0.986,0.0012,W
9.88,0.3285,-28.87,-1.35,98.0,0.082,0.15,0.973,0.0125,W
9.89,0.2964,70.09,1.41,98.1,0.075,0.151,0.981,0.0047,W
9.9,0.2467,-92.07,4.83,97.8,0.081,0.15,0.981,0.0042,W
9.91,0.2614,-77.65,-8.35,98.3,0.075,0.157,0.979,0.0054,W
9.92,0.2303,-27.0,2.87,98.1,0.081,0.147,0.988,0.0023,W
9.93,0.1408,-21.07,-2.0,97.7,0.077,0.153,0.975,0.0098,W
9.94,0.1248,-46.51,3.92,98.2,0.081,0.153,0.98,0.0052,W
9.95,0.0746,45.3,2.33,98.3,0.08,0.15,0.976,0.0092,W
9.96,-0.0055,22.12,4.31,98.0,0.083,0.15,0.979,0.0064,W
9.97,0.0217,-13.69,-1.27,97.9,0.08,0.151,0.984,0.0018,W
9.98,-0.0049,-3.5,-7.73,98.2,0.075,0.148,0.973,0.0134,W
9.99,-0.0404,-62.14,-0.28,98.2,0.079,0.147,0.978,0.0081,W
10.0,-0.0111,67.95,0.7,97.7,0.08,0.15,0.977,0.008,W
10.01,-0.0592,93.95,4.63,97.9,0.075,0.152,0.977,0.0084,W
10.02,-0.0612,40.59,2.09,98.0,0.078,0.145,0.974,0.0122,W
10.03,-0.0554,-20.72,0.24,98.3,0.079,0.15,0.984,0.0011,W
10.04,-0.0191,12.98,-6.94,98.0,0.08,0.155,0.975,0.0092,W
10.05,-0.0793,8.19,5.69,98.1,0.087,0.152,0.987,0.0027,W
10.06,-0.0548,28.17,-2.84,97.8,0.078,0.152,0.972,0.0129,W
10.07,-0.0112,14.77,0.1,98.2,0.077,0.158,0.977,0.0077,W
10.08,-0.0597,-2.66,-3.71,98.1,0.074,0.142,0.976,0.0112,W
10.09,-0.0397,-54.4,-6.84,98.0,0.072,0.148,0.971,0.0149,W
10.1,-0.051,27.68,-3.41,97.9,0.094,0.157,0.978,0.0055,W
10.11,-0.0368,80.69,-1.29,98.0,0.079,0.145,0.978,0.0082,W
10.12,-0.0545,13.6,-3.99,97.9,0.084,0.158,0.977,0.0069,W
10.13,-0.0356,67.09,2.7,97.8,0.092,0.149,0.976,0.0081,W
10.14,-0.0588,19.4,-4.94,98.0,0.085,0.149,0.986,0.0006,W
10.15,-0.0088,-31.68,6.05,97.8,0.077,0.146,0.985,0.001,W
10.16,-0.0015,88.96,-0.23,98.2,0.076,0.153,0.981,0.0044,W
10.17,0.0263,-8.29,-5.81,98.0,0.071,0.157,0.972,0.0131,W
10.18,0.0322,-16.95,-10.38,98.3,0.082,0.15,0.985,0.0006,W
10.19,0.1072,23.62,1.4,98.2,0.08,0.147,0.979,0.007,W
10.2,0.1053,-81.47,-10.83,98.1,0.074,0.151,0.985,0.001,W
10.21,0.1011,-25.84,1.39,98.1,0.087,0.154,0.98,0.0041,W
10.22,0.0869,21.14,-0.07,98.2,0.087,0.145,0.977,0.0087,W
10.23,0.0523,-54.81,3.1,98.0,0.076,0.149,0.98,0.0054,W
10.24,0.0173,2.6,9.36,98.1,0.077,0.146,0.976,0.0105,W
10.25,-0.0282,30.85,3.68,97.6,0.087,0.141,0.984,0.0022,W
10.26,-0.0307,-9.78,-7.66,98.2,0.079,0.152,0.985,0.0002,W
10.27,-0.0665,24.9,0.36,98.0,0.083,0.151,0.984,0.0008,W
10.28,-0.0806,-14.36,0.7,98.0,0.087,0.146,0.981,0.0044,W
10.29,-0.0199,-6.73,2.05,98.0,0.075,0.153,0.989,0.0037,W
10.3,-0.0595,-80.34,-3.85,98.1,0.084,0.15,0.983,0.0022,W
10.31,-0.0987,18.0,-1.5,97.9,0.078,0.148,0.97,0.0158,W
10.32,-0.1367,98.37,-6.06,98.0,0.086,0.146,0.977,0.0085,W
10.33,-0.0507,19.77,-14.99,97.9,0.079,0.159,0.979,0.0053,W
10.34,0.2768,46.4,-3.4,97.8,0.082,0.138,0.979,0.0076,W
10.35,0.7843,-58.96,4.18,97.7,0.078,0.146,0.975,0.011,W
10.36,1.1906,56.07,9.02,97.7,0.074,0.151,0.977,0.0091,W
10.37,1.125,5.71,-8.57,97.7,0.079,0.15,0.971,0.0142,W
10.38,0.6278,-10.38,-0.39,98.1,0.085,0.152,0.983,0.0021,W
10.39,0.1299,42.25,1.79,98.0,0.082,0.154,0.979,0.0055,W
10.4,-0.1288,8.48,-3.67,98.0,0.083,0.158,0.981,0.0028,W
10.41,-0.3282,11.91,5.44,97.9,0.078,0.158,0.981,0.0032,W
10.42,-0.277,11.84,-4.58,97.7,0.082,0.151,0.976,0.0088,W
10.43,-0.1796,21.23,-8.02,98.0,0.083,0.139,0.977,0.0093,W
10.44,-0.1172,127.16,5.8,97.9,0.077,0.15,0.979,0.0062,W
10.45,-0.0241,68.35,-0.55,98.0,0.083,0.145,0.982,0.0035,W
10.46,-0.0146,-10.14,-4.94,97.8,0.087,0.156,0.981,0.0023,W
10.47,-0.0573,85.44,6.62,98.1,0.088,0.153,0.975,0.0094,W
10.48,0.0199,-6.04,0.38,98.0,0.086,0.159,0.983,0.001,W
10.49,0.0411,39.04,-0.26,97.9,0.077,0.152,0.986,0.0006,W
10.5,0.0374,0.69,-5.61,98.1,0.078,0.144,0.974,0.0121,W
10.51,0.081,27.33,-0.23,98.0,0.081,0.15,0.984,0.0016,W
10.52,0.1123,35.48,-3.05,98.0,0.076,0.147,0.985,0.0016,W
10.53,0.1549,-45.65,-0.7,98.0,0.075,0.144,0.982,0.0045,W
10.54,0.2232,31.4,-1.58,98.0,0.082,0.153,0.986,0.0007,W
10.55,0.2644,-7.12,0.01,98.0,0.082,0.144,0.981,0.0049,W
10.56,0.2638,43.67,-0.69,98.3,0.078,0.146,0.985,0.0011,W
10.57,0.3052,62.01,3.83,97.9,0.079,0.145,0.972,0.014,W
10.58,0.3211,-66.55,-6.55,97.6,0.078,0.151,0.984,0.0015,W
10.59,0.3156,41.61,-2.05,97.9,0.073,0.147,0.98,0.0067,W
10.6,0.3345,-0.94,-2.92,97.9,0.07,0.155,0.979,0.0066,W
10.61,0.3144,-43.1,3.5,98.0,0.091,0.147,0.99,0.005,W
10.62,0.2499,-17.58,-4.29,98.1,0.082,0.146,0.975,0.0104,W
10.63,0.1984,3.64,-3.41,98.1,0.079,0.15,0.973,0.0124,W
10.64,0.1697,83.34,-5.11,97.9,0.074,0.152,0.981,0.0048,W
10.65,0.1431,36.06,0.15,98.0,0.083,0.152,0.98,0.0047,W
10.66,0.1027,16.04,-8.85,98.0,0.072,0.155,0.983,0.0026,W
10.67,0.0452,-58.66,-2.5,98.0,0.076,0.154,0.977,0.0076,W
10.68,0.0505,103.35,1.29,97.7,0.073,0.156,0.986,0.001,W
10.69,0.02,15.95,-4.04,97.8,0.089,0.146,0.982,0.0036,W
10.7,0.0279,-6.41,3.53,98.0,0.082,0.148,0.98,0.0058,W
10.71,-0.0243,3.82,-2.83,98.0,0.083,0.146,0.986,0.0001,W
10.72,0.0058,-33.18,1.12,97.9,0.085,0.153,0.974,0.0108,W
10.73,-0.0064,28.21,-0.45,97.6,0.077,0.15,0.986,0.0002,W
10.74,-0.0053,4.23,-3.34,97.7,0.083,0.145,0.986,0.0002,W
10.75,-0.0127,-28.23,4.45,98.3,0.084,0.161,0.986,0.0027,W
10.76,0.0136,85.38,-2.63,97.7,0.083,0.158,0.986,0.0018,W
10.77,0.0093,89.46,2.73,97.8,0.073,0.15,0.981,0.0048,W
10.78,0.0223,79.42,5.39,97.9,0.078,0.151,0.979,0.0068,W
10.79,0.0417,-49.02,7.26,97.8,0.073,0.154,0.97,0.0147,W
10.8,0.0262,-84.66,-4.91,98.0,0.077,0.153,0.977,0.0084,W
10.81,0.0298,30.48,-3.72,98.0,0.081,0.146,0.979,0.0065,W
10.82,0.007,-39.61,8.15,98.0,0.075,0.144,0.987,0.0001,W
10.83,0.0638,-94.3,3.99,97.9,0.084,0.143,0.989,0.0029,W
10.84,0.0628,-46.1,4.14,97.8,0.069,0.151,0.982,0.0041,W
10.85,0.063,-17.35,4.53,98.0,0.082,0.146,0.987,0.0007,W
10.86,0.151,-22.26,-2.37,98.2,0.076,0.151,0.973,0.0125,W
10.87,0.1746,42.14,-3.22,97.7,0.08,0.147,0.976,0.0098,W
10.88,0.1404,71.61,-4.26,97.8,0.089,0.152,0.972,0.0121,W
10.89,0.1474,-9.53,0.3,97.9,0.086,0.157,0.977,0.0072,W
10.9,0.1032,3.76,0.24,97.8,0.085,0.155,0.974,0.0102,W
10.91,0.0971,61.11,1.5,98.0,0.084,0.147,0.982,0.0033,W
10.92,0.0768,-61.8,-6.27,98.1,0.083,0.149,0.985,0.0003,W
10.93,0.0633,16.73,3.07,97.9,0.079,0.152,0.981,0.0039,W
10.94,0.0423,24.12,2.96,98.1,0.089,0.152,0.984,0.0005,W
10.95,0.0313,23.25,-4.4,97.6,0.074,0.156,0.979,0.0057,W
10.96,0.0265,2.36,-6.49,98.0,0.081,0.145,0.983,0.0029,W
10.97,0.0129,-56.93,8.48,97.8,0.082,0.152,0.976,0.0088,W
10.98,0.0089,8.05,4.86,98.0,0.078,0.163,0.978,0.0056,W
10.99,-0.0256,13.35,-8.8,97.9,0.08,0.16,0.983,0.001,W
11.0,-0.1124,-23.97,-5.36,97.9,0.075,0.156,0.984,0.0005,W
11.01,0.0543,-21.98,4.49,98.0,0.083,0.152,0.98,0.0053,W
11.02,0.4357,-67.51,0.18,98.2,0.083,0.146,0.979,0.007,W
11.03,0.9568,29.87,0.35,97.7,0.08,0.146,0.974,0.0117,W
11.04,1.2916,0.67,0.27,98.0,0.088,0.152,0.988,0.0032,W
11.05,1.0697,-39.42,-4.97,97.9,0.074,0.151,0.973,0.0122,W
11.06,0.5943,28.55,1.97,97.8,0.079,0.151,0.982,0.0037,W
11.07,0.1458,-13.76,1.27,97.8,0.078,0.153,0.982,0.0035,W
11.08,-0.1667,101.71,4.31,97.8,0.079,0.147,0.981,0.0054,W
11.09,-0.2756,-39.39,8.41,97.8,0.078,0.147,0.98,0.0061,W
11.1,-0.2095,19.94,3.63,97.8,0.077,0.149,0.976,0.0101,W
11.11,-0.1014,-3.19,-8.14,97.7,0.074,0.152,0.972,0.013,W
11.12,0.0327,42.88,-0.47,97.9,0.077,0.15,0.977,0.0087,W
11.13,0.0294,27.1,2.9,98.0,0.072,0.149,0.98,0.0063,W
11.14,-0.003,18.99,-10.5,98.0,0.084,0.156,0.982,0.002,W
11.15,0.054,49.71,-0.05,98.2,0.083,0.158,0.984,0.0002,W
11.16,0.0517,2.81,2.06,98.1,0.076,0.153,0.982,0.0032,W
11.17,0.0746,141.45,11.01,97.6,0.084,0.157,0.983,0.0008,W
11.18,0.1155,55.16,-3.14,97.7,0.082,0.157,0.975,0.0091,W
11.19,0.1535,53.51,-0.42,98.0,0.086,0.157,0.972,0.0115,W
11.2,0.1426,59.09,-3.47,97.8,0.071,0.152,0.98,0.0055,W
11.21,0.1993,48.82,-0.08,97.9,0.075,0.145,0.976,0.011,W
11.22,0.2797,29.23,3.05,98.0,0.075,0.152,0.973,0.0123,W
11.23,0.2999,11.96,-1.23,97.7,0.078,0.159,0.986,0.0015,W
11.24,0.3567,18.58,2.86,98.3,0.082,0.138,0.978,0.0092,W
11.25,0.3906,-17.6,-3.61,97.6,0.069,0.139,0.981,0.007,W
11.26,0.3616,-24.23,4.43,97.6,0.081,0.153,0.984,0.0008,W
11.27,0.4035,123.85,5.86,97.8,0.086,0.153,0.983,0.0015,W
11.28,0.3546,41.41,1.65,97.7,0.084,0.146,0.977,0.0084,W
11.29,0.3297,4.91,-4.06,98.2,0.087,0.145,0.97,0.0155,W
11.3,0.2607,41.08,13.58,98.0,0.077,0.153,0.972,0.0127,W
11.31,0.2104,-40.72,-5.95,97.9,0.081,0.148,0.984,0.0021,W
11.32,0.1927,93.57,8.06,97.9,0.08,0.153,0.984,0.0014,W
11.33,0.1713,-93.31,1.42,98.0,0.072,0.143,0.977,0.0097,W
11.34,0.1403,-65.33,7.52,97.7,0.078,0.145,0.978,0.008,W
11.35,0.1028,-18.96,5.22,97.8,0.081,0.144,0.987,0.0002,W
11.36,0.0463,24.79,-0.08,97.9,0.083,0.155,0.973,0.0111,W
11.37,0.0927,-69.55,9.76,98.0,0.085,0.15,0.985,0.0003,W
11.38,0.0553,-49.31,-1.23,98.0,0.079,0.152,0.975,0.01,W
11.39,0.0493,3.02,1.05,98.1,0.076,0.153,0.972,0.0129,W
11.4,0.0421,-3.82,-7.64,97.6,0.072,0.147,0.975,0.0111,W
11.41,0.0258,-40.94,6.47,97.9,0.074,0.146,0.974,0.0122,W
11.42,0.0194,6.85,3.16,97.7,0.072,0.151,0.969,0.0169,W
11.43,0.0232,12.06,3.54,97.9,0.08,0.146,0.978,0.0077,W
11.44,0.0652,2.15,-1.75,98.2,0.076,0.152,0.976,0.0094,W
11.45,0.0586,-74.82,7.57,97.8,0.079,0.152,0.986,0.0005,W
11.46,0.0315,39.72,-7.02,97.8,0.086,0.148,0.984,0.0014,W
11.47,0.0516,43.93,-6.02,97.9,0.078,0.144,0.986,0.0006,W
11.48,0.0555,-6.11,4.91,97.9,0.075,0.156,0.983,0.0017,W
11.49,0.0562,62.1,-0.97,97.8,0.073,0.143,0.98,0.0066,W
11.5,0.0531,-27.79,11.55,97.9,0.079,0.15,0.976,0.0098,W
11.51,0.0371,43.3,3.63,98.0,0.079,0.148,0.981,0.005,W
11.52,0.0964,26.61,-10.54,97.9,0.077,0.153,0.974,0.0111,W
11.53,0.0842,-45.02,1.24,97.8,0.081,0.15,0.978,0.0068,W
11.54,0.1013,-14.51,2.11,97.8,0.074,0.15,0.976,0.0098,W
11.55,0.1324,-65.92,-1.55,97.9,0.073,0.149,0.975,0.0114,W
11.56,0.1631,27.06,-12.11,98.0,0.084,0.144,0.983,0.0026,W
11.57,0.2026,32.06,-2.7,97.9,0.08,0.15,0.973,0.0121,W
11.58,0.1975,-40.13,-6.14,98.0,0.075,0.147,0.98,0.0064,W
11.59,0.1771,-67.99,-0.87,98.0,0.085,0.153,0.978,0.0068,W
11.6,0.1368,-61.96,-2.56,97.8,0.088,0.147,0.988,0.0029,W
11.61,0.0629,10.81,-9.33,97.5,0.093,0.144,0.981,0.0039,W
11.62,0.0307,-37.92,-3.65,97.9,0.079,0.151,0.984,0.0012,W
11.63,0.065,36.1,3.69,98.0,0.082,0.146,0.983,0.0024,W
11.64,0.0505,-23.03,-3.01,97.8,0.078,0.155,0.982,0.0031,W
11.65,0.0618,-20.84,-2.31,97.5,0.089,0.145,0.975,0.01,W
11.66,0.0618,-61.83,0.01,97.8,0.071,0.14,0.985,0.0025,W
11.67,0.0317,-43.74,-3.08,98.0,0.082,0.155,0.969,0.0155,W
11.68,-0.029,-71.35,-0.15,97.7,0.076,0.151,0.982,0.0038,W
11.69,-0.0576,45.3,-10.05,98.1,0.083,0.151,0.976,0.0085,W
11.7,0.0434,108.26,11.04,97.9,0.087,0.153,0.977,0.0071,W
11.71,0.4324,-22.08,10.16,97.8,0.081,0.155,0.987,0.0024,W
11.72,0.9437,7.68,-1.9,97.8,0.077,0.143,0.984,0.0021,W
11.73,1.29,-6.73,0.29,98.2,0.077,0.153,0.981,0.0045,W
11.74,1.1213,-34.58,4.05,97.8,0.078,0.147,0.973,0.0126,W
11.75,0.6354,-77.45,-2.75,97.7,0.08,0.158,0.971,0.013,W
11.76,0.1693,-7.8,-3.06,97.7,0.082,0.152,0.986,0.0011,W
11.77,-0.1222,-42.28,-0.64,97.9,0.081,0.142,0.983,0.0034,W
11.78,-0.2306,-37.17,0.75,97.7,0.086,0.154,0.986,0.0015,W
11.79,-0.2034,-14.34,-3.5,97.8,0.072,0.152,0.978,0.0075,W
11.8,-0.1018,-10.05,-0.91,97.8,0.077,0.145,0.976,0.01,W
11.81,0.0095,13.11,1.86,97.8,0.087,0.144,0.98,0.0052,W
11.82,0.0378,-38.41,2.38,97.7,0.079,0.159,0.985,0.001,W
11.83,0.0774,-74.67,7.67,97.8,0.072,0.155,0.98,0.0054,W
11.84,0.0387,-48.09,2.28,97.9,0.078,0.149,0.98,0.0058,W
11.85,0.0151,-1.67,5.99,97.8,0.078,0.145,0.978,0.0086,W
11.86,0.0801,-19.34,2.12,97.7,0.079,0.158,0.978,0.0065,W
11.87,0.1184,21.39,-0.26,97.8,0.079,0.165,0.983,0.0001,W
11.88,0.1542,-30.1,5.43,97.9,0.086,0.154,0.979,0.0055,W
11.89,0.166,33.3,10.97,98.1,0.078,0.143,0.979,0.0074,W
11.9,0.1961,-26.51,3.85,97.5,0.08,0.153,0.976,0.0085,W
11.91,0.2763,-40.97,-2.82,97.9,0.078,0.154,0.976,0.0087,W
11.92,0.3105,61.38,-3.67,97.8,0.078,0.135,0.978,0.0096,W
11.93,0.327,-28.9,0.74,97.9,0.084,0.148,0.979,0.0059,W
11.94,0.413,115.79,-6.15,98.0,0.072,0.145,0.969,0.018,W
11.95,0.3985,-66.76,-3.17,98.0,0.08,0.146,0.973,0.0132,W
11.96,0.3801,-123.84,-2.13,98.0,0.076,0.157,0.985,0.0002,W
11.97,0.3632,-10.46,10.58,98.0,0.087,0.144,0.99,0.004,W
11.98,0.3184,-90.79,4.33,97.7,0.074,0.151,0.982,0.0035,W
11.99,0.3349,-40.75,0.13,97.7,0.083,0.151,0.981,0.0043,W
12.0,0.2507,19.98,-1.66,97.6,0.076,0.151,0.974,0.0116,W
12.01,0.2002,65.27,4.97,97.7,0.083,0.139,0.981,0.0055,W
12.02,0.1661,57.83,-4.12,97.9,0.083,0.145,0.982,0.0035,W
12.03,0.1121,-29.06,4.44,97.9,0.081,0.144,0.986,0.0,W
12.04,0.0791,-7.05,0.38,97.5,0.078,0.149,0.979,0.0069,W
12.05,0.0448,36.22,1.85,98.0,0.081,0.152,0.979,0.0063,W
12.06,0.0919,-12.39,-5.48,97.9,0.08,0.148,0.977,0.0085,W
12.07,0.0641,2.02,-3.9,97.7,0.073,0.165,0.978,0.005,W
12.08,0.0457,53.66,6.66,98.0,0.082,0.15,0.971,0.0141,W
12.09,0.0025,10.39,-3.01,97.7,0.083,0.15,0.986,0.0006,W
12.1,0.0581,49.75,-1.21,97.9,0.084,0.149,0.977,0.0077,W
12.11,0.0149,91.17,-5.37,98.0,0.078,0.149,0.989,0.0029,W
12.12,0.0106,-30.39,1.42,97.8,0.081,0.152,0.975,0.0095,W
12.13,0.0549,-65.06,0.89,97.8,0.073,0.152,0.981,0.0048,W
12.14,0.0304,-38.65,2.28,97.5,0.087,0.155,0.987,0.0027,W
12.15,0.0261,-32.72,-4.05,97.8,0.076,0.15,0.975,0.0102,W
12.16,0.0462,-57.25,-4.55,98.0,0.081,0.154,0.989,0.0039,W
12.17,0.0518,56.05,6.09,97.9,0.089,0.156,0.986,0.0019,W
12.18,0.0393,-1.33,3.92,97.7,0.078,0.14,0.991,0.0041,W
12.19,-0.01,35.17,-7.79,97.8,0.075,0.156,0.983,0.0022,W
12.2,0.0795,-35.51,-2.48,97.7,0.085,0.159,0.987,0.0036,W
12.21,0.0352,21.81,-6.75,97.8,0.083,0.153,0.988,0.0031,W
12.22,0.0873,38.71,4.76,97.7,0.087,0.158,0.975,0.0085,W
12.23,0.1112,19.81,-0.45,97.9,0.078,0.148,0.982,0.004,W
12.24,0.1363,-127.7,-5.99,97.6,0.078,0.148,0.971,0.015,W
12.25,0.1331,-72.37,-6.46,97.9,0.08,0.154,0.981,0.0035,W
12.26,0.171,12.76,-2.24,97.9,0.083,0.154,0.989,0.0048,W
12.27,0.143,-35.6,0.7,97.9,0.082,0.147,0.982,0.0031,W
12.28,0.1088,-4.71,-0.17,97.9,0.078,0.14,0.977,0.0101,W
12.29,0.0718,-8.0,-0.09,97.9,0.079,0.155,0.977,0.0072,W
12.3,0.0649,-11.71,-3.55,98.0,0.082,0.151,0.983,0.0021,W
12.31,0.0447,96.28,-5.74,97.9,0.086,0.157,0.967,0.0168,W
12.32,0.0245,-14.64,2.84,98.0,0.081,0.155,0.985,0.0001,W
12.33,-0.0013,47.62,-0.98,97.6,0.079,0.147,0.975,0.0103,W
12.34,0.0034,-115.54,-2.07,97.8,0.077,0.148,0.974,0.012,W
12.35,-0.0239,37.57,-1.32,97.9,0.088,0.155,0.985,0.0007,W
12.36,-0.0402,-53.83,1.33,97.8,0.084,0.147,0.977,0.0081,W
12.37,-0.0969,12.68,6.92,97.8,0.082,0.149,0.979,0.0062,W
12.38,-0.1232,52.03,3.13,97.9,0.088,0.136,0.98,0.0069,W
12.39,0.1367,17.93,2.99,97.8,0.083,0.149,0.978,0.0074,W
12.4,0.5782,34.29,1.7,97.8,0.078,0.143,0.98,0.0067,W
12.41,1.0267,33.35,-0.34,97.7,0.083,0.143,0.983,0.0035,W
12.42,1.2497,72.55,5.5,97.9,0.087,0.159,0.989,0.0051,W
12.43,0.916,-35.52,-7.52,97.8,0.077,0.146,0.987,0.0008,W
12.44,0.421,14.74,-6.0,97.8,0.085,0.152,0.977,0.0074,W
12.45,-0.0031,-37.23,5.11,97.9,0.075,0.144,0.978,0.0089,W
12.46,-0.273,-25.75,-6.32,98.1,0.075,0.159,0.973,0.0112,W
12.47,-0.3135,-33.88,2.67,97.6,0.077,0.155,0.984,0.0014,W
12.48,-0.2023,3.56,-4.31,98.1,0.083,0.151,0.982,0.0031,W
12.49,-0.1102,12.12,-1.95,97.6,0.073,0.151,0.988,0.0025,W
12.5,-0.0407,-26.76,-3.64,97.5,0.075,0.138,0.991,0.0031,W
12.51,0.0286,48.65,5.87,97.5,0.078,0.161,0.984,0.0002,W
12.52,-0.0201,-18.52,-7.3,97.7,0.078,0.14,0.978,0.0089,W
12.53,0.0159,38.72,-0.69,98.0,0.077,0.153,0.979,0.006,W
12.54,-0.0043,27.25,-1.82,97.9,0.081,0.147,0.984,0.0022,W
12.55,0.0604,33.25,1.89,97.8,0.085,0.145,0.968,0.0172,W
12.56,0.1116,-57.6,-0.65,97.8,0.085,0.144,0.984,0.0014,W
12.57,0.1238,-26.55,-1.07,97.9,0.089,0.148,0.98,0.0053,W
12.58,0.0878,9.09,-4.82,97.9,0.071,0.145,0.975,0.0113,W
12.59,0.1716,-20.37,6.67,98.0,0.075,0.158,0.985,0.0001,W
12.6,0.2228,66.19,9.95,98.0,0.078,0.15,0.978,0.0078,W
12.61,0.2935,33.74,1.83,97.9,0.08,0.15,0.97,0.015,W
12.62,0.3006,-0.17,2.5,97.9,0.075,0.155,0.977,0.0081,W
12.63,0.3136,-51.13,-2.68,98.1,0.075,0.153,0.974,0.0113,W
12.64,0.3491,24.38,1.08,97.9,0.086,0.157,0.981,0.0029,W
12.65,0.3121,8.68,2.61,97.8,0.083,0.151,0.984,0.0011,W
12.66,0.2907,73.72,-11.69,97.7,0.08,0.157,0.983,0.001,W
12.67,0.2544,-54.88,-0.61,97.8,0.071,0.151,0.98,0.0062,W
12.68,0.1984,-5.11,5.91,97.7,0.079,0.147,0.985,0.001,W
12.69,0.1762,46.48,-1.08,97.6,0.075,0.151,0.992,0.0057,W
12.7,0.146,0.95,5.79,97.7,0.086,0.157,0.978,0.0054,W
12.71,0.1301,22.89,-5.63,98.0,0.084,0.156,0.985,0.0012,W
12.72,0.0658,54.96,2.72,97.7,0.088,0.146,0.979,0.006,W
12.73,0.0038,-16.27,-4.33,97.8,0.08,0.153,0.99,0.0051,W
12.74,0.0119,-99.23,7.04,97.7,0.079,0.148,0.982,0.0034,W
12.75,0.0086,6.89,5.03,97.8,0.072,0.149,0.977,0.0089,W
12.76,-0.0045,98.18,10.6,98.2,0.071,0.147,0.982,0.0048,W
12.77,0.0093,63.33,4.16,97.7,0.078,0.157,0.982,0.0027,W
12.78,0.0072,-51.02,-4.43,97.7,0.088,0.151,0.979,0.0059,W
12.79,-0.0082,34.87,3.79,97.7,0.078,0.142,0.976,0.0108,W
12.8,-0.0117,-44.15,-1.26,97.9,0.08,0.152,0.98,0.0051,W
12.81,-0.0127,-26.82,0.44,97.5,0.078,0.15,0.985,0.0006,W
12.82,-0.0469,-27.83,-1.19,97.9,0.078,0.15,0.986,0.0005,W
12.83,0.0012,115.85,-6.05,97.8,0.085,0.143,0.971,0.015,W
12.84,-0.0422,-47.44,-3.96,97.9,0.077,0.149,0.974,0.0117,W
12.85,-0.0181,9.61,-1.12,97.8,0.078,0.153,0.974,0.0108,W
12.86,-0.0229,57.35,7.68,97.7,0.081,0.15,0.978,0.0069,W
12.87,-0.0211,13.39,2.58,97.5,0.081,0.145,0.969,0.0165,W
12.88,0.0149,51.55,-0.72,97.6,0.081,0.151,0.989,0.004,W
12.89,-0.0253,13.52,-0.21,97.8,0.07,0.15,0.972,0.0138,W
12.9,-0.0409,-13.72,1.25,97.6,0.079,0.158,0.972,0.0121,W
12.91,-0.0307,23.51,7.57,97.7,0.071,0.16,0.978,0.0066,W
12.92,0.0421,2.51,1.5,97.9,0.081,0.138,0.983,0.0043,W
12.93,0.0333,-16.09,-4.21,97.9,0.091,0.147,0.977,0.0073,W
12.94,0.0648,129.18,4.9,97.9,0.076,0.148,0.983,0.0026,W
12.95,0.0667,58.74,-6.16,97.7,0.072,0.15,0.974,0.0114,W
12.96,0.0874,-11.37,-1.19,97.8,0.076,0.153,0.987,0.0013,W
12.97,0.1094,21.7,2.7,97.9,0.077,0.145,0.985,0.0011,W
12.98,0.051,29.03,2.47,97.7,0.077,0.143,0.983,0.0038,W
12.99,0.0253,80.14,2.11,97.6,0.072,0.15,0.975,0.0112,W
13.0,-0.0026,10.53,-3.19,97.9,0.076,0.153,0.982,0.0034,W
13.01,-0.007,-53.41,-3.68,97.8,0.078,0.15,0.984,0.0018,W
13.02,-0.0152,24.08,-3.84,97.6,0.076,0.146,0.979,0.0074,W
13.03,-0.0373,-5.3,1.28,97.8,0.076,0.144,0.977,0.0099,W
13.04,-0.0639,-1.3,2.11,97.8,0.076,0.144,0.983,0.0035,W
13.05,-0.0536,15.68,1.47,97.7,0.078,0.154,0.985,0.0,W
13.06,-0.0779,-0.25,0.54,97.6,0.078,0.153,0.985,0.0003,W
13.07,-0.1007,-108.74,-12.54,97.5,0.082,0.144,0.988,0.0017,W
13.08,-0.1445,-4.51,-6.09,97.8,0.084,0.148,0.983,0.0024,W
13.09,0.0224,-9.01,7.39,97.6,0.075,0.154,0.983,0.0018,W
13.1,0.3689,65.54,11.02,97.5,0.087,0.15,0.98,0.0047,W
13.11,0.9205,12.47,3.02,97.6,0.081,0.146,0.988,0.0016,W
13.12,1.1796,25.2,1.44,97.6,0.083,0.155,0.982,0.0021,W
13.13,0.9586,3.65,-3.41,97.8,0.088,0.135,0.964,0.0226,W
13.14,0.5283,24.22,-3.51,97.5,0.084,0.142,0.979,0.007,W
13.15,0.0677,-36.11,-6.86,97.7,0.09,0.156,0.984,0.0004,W
13.16,-0.2383,17.99,0.15,97.9,0.075,0.15,0.977,0.0085,W
13.17,-0.337,-10.32,8.65,97.7,0.076,0.152,0.977,0.0086,W
13.18,-0.3327,-74.87,-2.63,97.6,0.074,0.151,0.979,0.007,W
13.19,-0.1774,36.91,6.16,97.9,0.087,0.155,0.99,0.0061,W
13.2,-0.0695,23.42,-7.31,97.9,0.078,0.152,0.979,0.0059,W
13.21,-0.0911,55.28,6.74,97.6,0.077,0.147,0.984,0.0026,W
13.22,-0.0526,-44.56,3.1,97.7,0.091,0.15,0.969,0.0153,W
13.23,-0.0631,15.85,10.29,97.7,0.076,0.158,0.981,0.0029,W
13.24,-0.009,-11.5,4.01,97.8,0.082,0.141,0.991,0.0044,W
13.25,-0.0212,62.64,-4.36,97.7,0.074,0.147,0.979,0.0073,W
13.26,-0.0078,76.66,1.73,97.7,0.082,0.148,0.981,0.0042,W
13.27,0.0434,29.65,3.24,97.9,0.083,0.15,0.98,0.0048,W
13.28,0.0718,1.45,-6.38,97.7,0.081,0.152,0.976,0.009,W
13.29,0.1075,16.22,-1.48,97.7,0.082,0.152,0.98,0.0048,W
13.3,0.1727,-49.64,3.92,97.8,0.079,0.148,0.986,0.0004,W
13.31,0.1999,-0.32,5.26,97.6,0.081,0.148,0.983,0.0028,W
13.32,0.262,69.73,6.49,98.1,0.072,0.153,0.974,0.0113,W
13.33,0.257,-43.55,1.26,97.8,0.079,0.15,0.975,0.0105,W
13.34,0.2825,43.48,2.32,97.6,0.081,0.153,0.977,0.0076,W
13.35,0.3178,4.24,5.95,97.8,0.079,0.153,0.986,0.0014,W
13.36,0.2839,-54.72,0.08,97.8,0.078,0.151,0.98,0.0059,W
13.37,0.2521,84.25,-6.34,97.7,0.079,0.143,0.984,0.0021,W
13.38,0.2327,-68.14,-6.83,97.5,0.084,0.137,0.988,0.0014,W
13.39,0.1154,-78.56,-4.39,97.9,0.082,0.152,0.979,0.0062,W
13.4,0.1276,19.82,4.39,97.8,0.09,0.15,0.983,0.0017,W
13.41,0.0519,-65.93,3.09,97.4,0.079,0.145,0.974,0.0116,W
13.42,0.0267,-43.36,7.6,97.6,0.078,0.152,0.973,0.0122,W
13.43,0.0048,108.46,4.62,97.6,0.083,0.146,0.974,0.0113,W
13.44,-0.0226,-26.61,5.84,97.8,0.08,0.157,0.98,0.0048,W
13.45,-0.072,12.71,3.28,97.9,0.077,0.148,0.983,0.0029,W
13.46,-0.0219,51.17,0.15,97.8,0.073,0.154,0.983,0.0022,W
13.47,-0.032,75.99,-0.08,97.7,0.075,0.155,0.982,0.0027,W
13.48,-0.0353,-123.04,-0.11,97.6,0.08,0.157,0.983,0.0009,W
13.49,-0.0178,-54.75,-6.37,97.7,0.087,0.149,0.981,0.0042,W
13.5,-0.0706,-64.34,-9.81,97.4,0.085,0.15,0.969,0.0153,W
13.51,-0.0565,60.19,-5.52,97.9,0.077,0.153,0.981,0.0046,W
13.52,-0.032,-26.93,1.2,97.9,0.08,0.15,0.971,0.0145,W
13.53,-0.0796,-55.79,-6.0,97.6,0.09,0.15,0.982,0.0028,W
13.54,-0.0634,87.27,-9.29,97.9,0.088,0.151,0.978,0.0062,W
13.55,-0.0528,-6.85,-2.34,97.7,0.081,0.154,0.962,0.0223,W
13.56,-0.0438,2.94,-0.13,97.6,0.084,0.152,0.978,0.0065,W
13.57,-0.0266,-71.96,-1.59,97.7,0.079,0.146,0.978,0.0077,W
13.58,-0.0152,59.06,4.14,97.8,0.081,0.148,0.982,0.0038,W
13.59,-0.0679,23.95,8.54,97.9,0.072,0.156,0.981,0.004,W
13.6,-0.0453,-97.3,-1.18,97.7,0.082,0.151,0.983,0.0023,W
13.61,-0.0783,-60.86,6.28,97.9,0.087,0.151,0.989,0.0037,W
13.62,-0.059,47.01,-4.54,97.7,0.08,0.147,0.983,0.0034,W
13.63,0.0017,32.9,4.92,97.6,0.08,0.151,0.99,0.0042,W
13.64,0.0321,-18.14,-1.61,97.4,0.084,0.153,0.981,0.0038,W
13.65,0.0324,-1.77,4.78,97.7,0.081,0.154,0.976,0.009,W
13.66,0.1374,-29.03,-4.24,97.8,0.071,0.149,0.986,0.0006,W
13.67,0.1211,20.11,-1.61,97.9,0.085,0.154,0.987,0.0021,W
13.68,0.0669,-2.69,1.11,97.6,0.081,0.155,0.976,0.0086,W
13.69,0.0473,11.68,-1.59,97.5,0.081,0.148,0.98,0.0053,W
13.7,0.0149,-19.79,0.55,97.7,0.093,0.157,0.973,0.0105,W
13.71,-0.0137,-59.79,12.17,97.8,0.082,0.146,0.973,0.013,W
13.72,-0.0228,11.43,-0.92,97.8,0.066,0.149,0.972,0.0143,W
13.73,-0.0344,-41.15,-6.46,97.8,0.075,0.152,0.977,0.0087,W
13.74,-0.0442,-38.98,-0.47,97.6,0.076,0.155,0.976,0.0086,W
13.75,-0.034,-32.72,-2.21,97.7,0.082,0.157,0.976,0.008,W
13.76,-0.0153,60.78,-1.83,97.7,0.079,0.157,0.973,0.0113,W
13.77,-0.0843,51.8,2.98,97.8,0.076,0.157,0.983,0.0015,W
13.78,-0.159,20.6,0.56,97.7,0.071,0.148,0.978,0.0088,W
13.79,-0.1214,-6.01,5.53,97.9,0.067,0.147,0.977,0.0101,W
13.8,0.1889,61.37,4.01,97.6,0.082,0.149,0.982,0.0034,W
13.81,0.6557,1.84,-1.63,97.6,0.082,0.159,0.975,0.0086,W
13.82,1.1195,-7.91,-1.87,97.8,0.081,0.158,0.983,0.0009,W
13.83,1.167,-36.23,2.39,97.8,0.079,0.156,0.987,0.0026,W
13.84,0.7887,-100.96,2.16,97.9,0.079,0.153,0.982,0.0027,W
13.85,0.2245,-15.28,0.53,97.9,0.083,0.144,0.992,0.0061,W
13.86,-0.062,0.02,-0.2,97.7,0.076,0.155,0.983,0.0021,W
13.87,-0.3251,22.3,-1.09,97.6,0.075,0.151,0.982,0.0036,W
13.88,-0.3086,-101.36,3.46,97.8,0.075,0.151,0.972,0.0136,W
13.89,-0.2295,5.75,7.35,97.7,0.078,0.152,0.974,0.0109,W
13.9,-0.1377,40.53,-1.61,97.6,0.082,0.151,0.981,0.0045,W
13.91,-0.0723,-37.49,-3.69,97.5,0.075,0.154,0.986,0.0011,W
13.92,-0.0233,-28.42,0.35,97.9,0.078,0.148,0.975,0.0104,W
13.93,-0.0126,-43.21,-3.2,97.7,0.081,0.154,0.974,0.0106,W
13.94,-0.0163,-30.55,-0.92,98.0,0.081,0.149,0.972,0.0131,W
13.95,0.027,-17.85,-10.84,97.9,0.081,0.147,0.98,0.0058,W
13.96,0.0599,75.61,-0.2,97.9,0.084,0.152,0.982,0.0023,W
13.97,0.067,-64.37,0.13,97.6,0.087,0.147,0.983,0.0026,W
13.98,0.0667,49.57,2.82,97.5,0.082,0.152,0.978,0.0072,W
13.99,0.1619,-29.71,2.71,97.5,0.091,0.15,0.982,0.0022,W
14.0,0.2217,-29.25,-0.95,97.6,0.083,0.154,0.98,0.005,W
14.01,0.2304,-30.37,5.67,97.8,0.081,0.15,0.974,0.0112,W
14.02,0.2953,-36.21,1.47,97.5,0.078,0.145,0.973,0.0127,W
14.03,0.3049,2.02,1.8,97.5,0.078,0.144,0.984,0.0022,W
14.04,0.3076,-56.2,4.33,97.6,0.081,0.145,0.983,0.0032,W
14.05,0.3366,25.79,-8.53,97.6,0.079,0.149,0.97,0.0156,W
14.06,0.3025,-64.83,-4.36,98.0,0.081,0.15,0.98,0.0054,W
14.07,0.2757,35.59,-7.16,98.0,0.084,0.152,0.975,0.0094,W
14.08,0.2409,-15.32,6.09,97.7,0.074,0.149,0.984,0.0019,W
14.09,0.2188,-18.19,2.37,98.0,0.081,0.158,0.976,0.0082,W
14.1,0.1737,-2.89,-0.49,97.8,0.088,0.15,0.987,0.0022,W
14.11,0.0906,-98.11,2.29,97.8,0.083,0.148,0.982,0.0037,W
14.12,0.0926,-23.18,8.32,97.9,0.078,0.152,0.977,0.0083,W
14.13,0.0386,-33.22,-0.3,97.8,0.08,0.146,0.984,0.002,W
14.14,0.0081,3.88,3.35,97.8,0.083,0.146,0.984,0.002,W
14.15,-0.0062,-95.27,-4.5,97.5,0.075,0.143,0.985,0.0019,W
14.16,-0.0247,5.15,9.05,97.6,0.079,0.149,0.98,0.006,W
14.17,-0.0189,62.67,-2.06,97.8,0.078,0.149,0.982,0.0036,W
14.18,-0.0434,104.73,-0.39,97.6,0.078,0.146,0.979,0.0068,W
14.19,0.007,-68.35,-0.67,97.6,0.078,0.15,0.975,0.0108,W
14.2,0.0276,61.58,-11.35,97.7,0.082,0.155,0.978,0.0059,W
14.21,0.0085,-39.59,12.11,97.4,0.079,0.143,0.988,0.0016,W
14.22,-0.0043,70.07,-0.87,97.4,0.09,0.149,0.979,0.006,W
14.23,-0.0104,2.1,3.99,97.6,0.082,0.152,0.976,0.0091,W
14.24,-0.0142,-46.71,-2.83,97.8,0.082,0.147,0.982,0.0037,W
14.25,-0.0226,47.97,-4.05,97.7,0.08,0.141,0.976,0.0105,W
14.26,-0.0149,3.12,-8.46,97.8,0.082,0.149,0.977,0.0081,W
14.27,0.0159,-37.05,-7.9,97.8,0.084,0.156,0.982,0.0021,W
14.28,-0.0059,1.62,-5.52,97.7,0.089,0.148,0.983,0.0016,W
14.29,0.0409,14.25,2.78,97.6,0.078,0.155,0.976,0.0085,W
14.3,0.0205,-56.21,-0.39,97.8,0.089,0.151,0.981,0.0038,W
14.31,0.0411,-45.95,0.68,97.7,0.079,0.149,0.979,0.0065,W
14.32,0.0322,-43.12,-0.49,97.9,0.08,0.145,0.975,0.0112,W
14.33,0.0337,-17.19,-5.89,97.7,0.077,0.154,0.975,0.0102,W
14.34,0.1078,39.38,1.61,98.1,0.092,0.152,0.977,0.0071,W
14.35,0.1464,-27.27,6.96,97.8,0.078,0.156,0.976,0.0086,W
14.36,0.1459,66.59,-1.63,97.9,0.093,0.145,0.984,0.0015,W
14.37,0.1584,-122.0,-3.4,97.7,0.08,0.148,0.98,0.006,W
14.38,0.1242,46.49,7.74,97.7,0.076,0.147,0.981,0.0052,W
14.39,0.0381,28.97,1.16,97.8,0.077,0.147,0.977,0.0093,W
14.4,0.024,22.57,-6.06,97.7,0.086,0.152,0.979,0.0056,W
14.41,-0.0107,-14.68,4.37,97.8,0.08,0.153,0.979,0.0061,W
14.42,0.0001,6.04,1.15,97.5,0.088,0.153,0.988,0.0035,W
14.43,0.011,33.45,-2.08,97.8,0.084,0.157,0.981,0.0031,W
14.44,0.0357,33.97,0.02,97.7,0.083,0.145,0.989,0.0036,W
14.45,0.0128,77.01,-0.73,97.7,0.082,0.146,0.987,0.0007,W
14.46,-0.0046,36.21,-1.89,97.7,0.072,0.154,0.981,0.0046,W
14.47,-0.1064,69.28,-2.37,97.7,0.087,0.144,0.971,0.0148,W
14.48,-0.0772,25.36,0.98,97.5,0.075,0.154,0.983,0.0023,W
14.49,0.1502,71.07,-1.36,97.5,0.08,0.149,0.977,0.0089,W
14.5,0.596,27.56,-3.39,98.0,0.088,0.151,0.972,0.0129,W
14.51,1.074,18.11,-0.07,97.8,0.075,0.155,0.976,0.0093,W
14.52,1.2394,58.09,0.71,97.6,0.071,0.145,0.978,0.0083,W
14.53,0.9463,7.48,4.89,98.0,0.088,0.158,0.986,0.0026,W
14.54,0.4578,-53.43,-10.47,97.6,0.077,0.151,0.986,0.0005,W
14.55,0.0336,46.54,-4.48,97.9,0.083,0.15,0.98,0.0052,W
14.56,-0.2113,88.06,-2.33,97.8,0.077,0.148,0.988,0.0024,W
14.57,-0.2411,103.63,-4.36,97.6,0.081,0.151,0.973,0.0123,W
14.58,-0.1534,-45.06,-3.39,97.7,0.081,0.156,0.973,0.0113,W
14.59,-0.0973,40.78,-7.62,97.7,0.079,0.141,0.975,0.012,W
14.6,-0.0064,52.42,-2.15,98.0,0.079,0.153,0.987,0.0016,W
14.61,0.025,56.08,-2.43,97.8,0.072,0.152,0.975,0.0107,W
14.62,0.0398,-21.09,1.89,97.7,0.086,0.149,0.981,0.0042,W
14.63,0.0502,-26.65,3.93,97.8,0.077,0.147,0.973,0.0135,W
14.64,0.0496,89.05,0.24,97.7,0.08,0.146,0.975,0.0107,W
14.65,0.0565,16.68,1.34,97.8,0.08,0.143,0.978,0.0082,W
14.66,0.1501,10.23,0.17,97.7,0.074,0.147,0.992,0.0057,W
14.67,0.1488,-17.69,11.62,97.6,0.073,0.149,0.986,0.0006,W
14.68,0.2112,47.66,-0.41,97.9,0.083,0.157,0.98,0.0041,W
14.69,0.2916,27.2,5.85,97.6,0.083,0.145,0.975,0.0103,W
14.7,0.3281,94.34,-2.71,97.8,0.079,0.154,0.976,0.009,W
14.71,0.3397,80.25,-0.67,97.4,0.077,0.145,0.981,0.0053,W
14.72,0.3559,-7.01,-3.22,97.5,0.083,0.157,0.989,0.0045,W
14.73,0.378,-67.05,-8.79,97.8,0.079,0.145,0.974,0.0123,W
14.74,0.4019,-55.72,-7.53,97.7,0.082,0.143,0.981,0.0051,W
14.75,0.4075,49.74,-2.01,97.6,0.078,0.148,0.978,0.0079,W
14.76,0.339,-10.88,-4.01,97.8,0.085,0.142,0.975,0.0107,W
14.77,0.3207,113.41,6.13,97.7,0.079,0.149,0.979,0.0066,W
14.78,0.2436,11.48,10.75,97.9,0.085,0.149,0.983,0.0024,W
14.79,0.2303,61.32,-2.06,97.9,0.075,0.147,0.984,0.0018,W
14.8,0.1803,-17.7,3.47,97.7,0.078,0.145,0.982,0.004,W
14.81,0.1594,-16.16,-11.64,97.8,0.076,0.149,0.979,0.0073,W
14.82,0.1581,21.65,-0.68,97.7,0.087,0.147,0.985,0.0005,W
14.83,0.0656,56.03,2.68,97.6,0.088,0.151,0.981,0.004,W
14.84,0.0538,22.6,4.2,97.8,0.082,0.15,0.99,0.0044,W
14.85,0.0218,-37.31,-2.24,97.6,0.082,0.152,0.982,0.0024,W
14.86,0.0526,59.98,6.26,97.6,0.093,0.148,0.981,0.0037,W
14.87,0.051,58.74,-2.87,97.6,0.079,0.151,0.973,0.0117,W
14.88,0.0222,-28.01,2.81,98.1,0.074,0.14,0.984,0.0028,W
14.89,0.0352,70.79,3.02,97.7,0.083,0.151,0.98,0.0045,W
14.9,0.0442,-50.09,1.6,97.6,0.079,0.161,0.976,0.0077,W
14.91,0.043,16.02,-6.89,97.7,0.08,0.145,0.984,0.0022,W
14.92,0.0752,13.78,2.65,97.9,0.083,0.155,0.977,0.0068,W
14.93,0.0533,-9.92,1.31,97.8,0.078,0.144,0.977,0.0093,W
14.94,0.0313,-6.28,-4.58,98.0,0.081,0.149,0.984,0.0017,W
14.95,0.0368,10.04,4.59,97.7,0.071,0.142,0.974,0.0127,W
14.96,0.0917,-3.97,2.91,97.4,0.082,0.147,0.977,0.0082,W
14.97,0.0571,-13.84,-4.29,97.8,0.077,0.154,0.987,0.0019,W
14.98,0.0514,55.43,-3.85,97.6,0.082,0.145,0.991,0.0047,W
14.99,0.053,-40.3,-7.67,97.7,0.077,0.148,0.986,0.0002,W
15.0,0.0864,-77.38,-4.5,97.7,0.075,0.148,0.976,0.0103,W
15.01,0.1277,-29.15,-0.45,97.6,0.085,0.147,0.983,0.0024,W
15.02,0.2031,-2.64,-4.83,97.7,0.078,0.156,0.987,0.0023,W
15.03,0.2116,34.09,1.14,97.6,0.092,0.146,0.983,0.002,W
15.04,0.2009,-14.28,7.29,97.9,0.065,0.156,0.975,0.0104,W
15.05,0.1889,4.6,-5.61,97.8,0.084,0.148,0.979,0.0059,W
15.06,0.1138,-43.97,-0.76,97.8,0.087,0.154,0.977,0.0071,W
15.07,0.1183,-15.3,-10.35,97.5,0.082,0.148,0.972,0.013,W
15.08,0.0709,-23.33,3.98,97.7,0.083,0.153,0.981,0.0037,W
15.09,0.0301,-9.92,-7.14,97.7,0.084,0.153,0.973,0.0113,W
15.1,0.0627,-38.16,9.38,97.7,0.083,0.147,0.982,0.0032,W
15.11,0.0061,-68.99,-1.84,97.8,0.075,0.148,0.985,0.001,W
15.12,0.0468,-1.86,-4.19,97.8,0.083,0.142,0.975,0.0109,W
15.13,0.0687,-11.29,5.63,97.9,0.082,0.155,0.975,0.0098,W
15.14,-0.0293,24.38,-6.81,97.5,0.085,0.151,0.98,0.0052,W
15.15,-0.0866,59.68,1.83,97.9,0.079,0.144,0.979,0.0072,W
15.16,0.019,122.18,1.63,97.8,0.071,0.148,0.974,0.0121,W
15.17,0.2754,-81.93,5.31,97.4,0.074,0.15,0.981,0.0044,W
15.18,0.767,-5.02,4.06,97.7,0.077,0.147,0.981,0.0048,W
15.19,1.2062,-22.61,2.07,97.6,0.079,0.151,0.984,0.0011,W
15.2,1.2409,-72.46,-3.69,97.4,0.084,0.151,0.983,0.0024,W
15.21,0.8382,0.67,-4.37,97.6,0.077,0.148,0.982,0.0037,W
15.22,0.3079,-11.46,8.14,97.9,0.08,0.153,0.986,0.0006,W
15.23,-0.0365,33.9,-7.5,97.7,0.085,0.154,0.98,0.0039,W
15.24,-0.2093,-3.66,-0.34,97.7,0.074,0.151,0.979,0.0064,W
15.25,-0.229,0.9,10.8,97.6,0.078,0.158,0.979,0.0049,W
15.26,-0.138,94.07,4.03,97.8,0.073,0.149,0.984,0.0019,W
15.27,-0.0305,1.8,3.9,97.9,0.085,0.146,0.981,0.0043,W
15.28,0.0395,41.92,6.39,97.8,0.079,0.158,0.984,0.0007,W
15.29,0.0513,44.2,1.51,97.6,0.072,0.152,0.979,0.0066,W
15.3,0.0857,46.12,-3.44,97.6,0.081,0.158,0.986,0.0015,W
15.31,0.0651,-34.32,-5.33,97.6,0.085,0.143,0.979,0.0067,W
15.32,0.0762,8.26,-12.94,97.7,0.091,0.151,0.984,0.0007,W
15.33,0.103,48.07,4.31,97.8,0.088,0.151,0.98,0.004,W
15.34,0.1446,39.75,-2.29,97.7,0.082,0.14,0.978,0.0091,W
15.35,0.1373,41.93,2.51,97.5,0.083,0.155,0.972,0.0121,W
15.36,0.2081,-27.45,0.9,97.8,0.074,0.149,0.989,0.003,W
15.37,0.2375,-60.64,3.75,97.7,0.074,0.156,0.979,0.0062,W
15.38,0.3024,63.58,2.56,97.7,0.075,0.155,0.982,0.0032,W
15.39,0.366,95.63,0.77,97.6,0.078,0.154,0.984,0.0011,W
15.4,0.3997,-43.62,1.14,98.0,0.078,0.147,0.984,0.0021,W
15.41,0.3748,69.52,-2.9,97.8,0.082,0.149,0.985,0.0001,W
15.42,0.3862,-16.92,-3.6,97.6,0.091,0.14,0.979,0.0069,W
15.43,0.3632,-55.05,0.71,97.7,0.086,0.149,0.98,0.005,W
15.44,0.3578,-4.59,3.96,97.6,0.081,0.145,0.988,0.002,W
15.45,0.3142,5.72,2.66,97.8,0.08,0.151,0.972,0.0135,W
15.46,0.2625,45.0,-0.25,97.7,0.076,0.147,0.986,0.0006,W
15.47,0.2088,-11.54,-13.1,97.6,0.09,0.146,0.985,0.0002,W
15.48,0.1556,74.18,6.46,97.6,0.08,0.148,0.978,0.0078,W
15.49,0.1063,53.74,-6.61,97.9,0.077,0.152,0.981,0.004,W
15.5,0.1478,-27.71,-1.72,97.5,0.077,0.149,0.98,0.006,W
15.51,0.1214,-9.27,-0.26,97.6,0.077,0.15,0.977,0.009,W
15.52,0.1045,15.79,8.37,98.1,0.079,0.15,0.97,0.0155,W
15.53,0.0498,22.52,-4.3,97.6,0.086,0.155,0.988,0.0033,W
15.54,0.0747,93.95,5.76,97.9,0.084,0.144,0.982,0.0042,W
15.55,0.0247,18.07,4.36,97.9,0.077,0.155,0.983,0.0021,W
15.56,0.0577,72.5,1.1,97.6,0.08,0.149,0.977,0.0082,W
15.57,0.0161,2.43,-7.77,97.4,0.078,0.151,0.987,0.0016,W
15.58,0.0387,-67.41,5.83,97.7,0.077,0.147,0.978,0.0075,W
15.59,0.0129,16.54,-2.79,97.8,0.082,0.152,0.978,0.0064,W
15.6,0.0428,-82.18,0.13,97.8,0.079,0.146,0.972,0.0136,W
15.61,0.069,-37.81,-6.05,97.7,0.076,0.153,0.973,0.0116,W
15.62,0.0345,-39.69,-5.27,97.9,0.084,0.146,0.973,0.0121,W
15.63,0.0355,29.6,-3.54,97.7,0.076,0.157,0.976,0.009,W
15.64,0.0877,-1.08,6.01,97.9,0.083,0.146,0.98,0.0055,W
15.65,0.0339,-19.79,6.9,97.6,0.073,0.15,0.984,0.0021,W
15.66,0.0457,17.48,2.23,97.7,0.076,0.154,0.977,0.0083,W
15.67,0.0195,16.5,2.27,97.6,0.078,0.15,0.982,0.0038,W
15.68,0.0778,23.42,-2.16,97.6,0.078,0.15,0.972,0.0133,W
15.69,0.0567,52.84,0.77,97.6,0.082,0.148,0.984,0.002,W
15.7,0.0789,29.62,-9.2,97.6,0.084,0.149,0.985,0.0005,W
15.71,0.1187,-10.72,-4.52,97.5,0.074,0.14,0.982,0.0052,W
15.72,0.163,70.96,4.3,97.8,0.08,0.155,0.975,0.0095,W
15.73,0.1438,0.73,1.16,97.7,0.075,0.144,0.98,0.0068,W
15.74,0.2104,-58.47,2.09,97.7,0.076,0.149,0.978,0.0081,W
15.75,0.1693,-5.69,3.29,97.8,0.077,0.146,0.98,0.0058,W
15.76,0.1385,50.6,-5.87,97.6,0.083,0.15,0.98,0.005,W
15.77,0.0875,80.97,1.47,97.6,0.085,0.153,0.99,0.005,W
15.78,0.0522,-100.62,0.09,97.8,0.078,0.154,0.975,0.0094,W
15.79,0.0148,-0.53,3.96,97.6,0.074,0.143,0.976,0.0108,W
15.8,0.028,33.36,-1.98,97.8,0.078,0.152,0.977,0.0079,W
15.81,0.0674,-13.03,-0.49,97.8,0.077,0.148,0.986,0.0003,W
15.82,0.0328,-14.87,2.77,98.0,0.078,0.156,0.981,0.0035,W
15.83,0.0765,-4.27,-1.29,97.7,0.076,0.146,0.984,0.0023,W
15.84,-0.0097,-28.45,5.48,97.7,0.083,0.153,0.972,0.0127,W
15.85,-0.0899,37.11,2.37,97.9,0.082,0.15,0.983,0.0023,W
15.86,-0.0618,10.67,-1.19,97.7,0.075,0.148,0.99,0.0036,W
15.87,0.1976,-0.21,5.71,97.9,0.078,0.148,0.97,0.0156,W
15.88,0.7273,19.22,-10.2,97.6,0.068,0.144,0.986,0.001,W
15.89,1.1739,1.97,-1.48,97.6,0.075,0.152,0.978,0.0074,W
15.9,1.2657,50.4,2.59,97.5,0.076,0.159,0.979,0.0053,W
15.91,0.8338,-0.7,-3.81,97.7,0.073,0.147,0.984,0.0026,W
15.92,0.2991,34.71,-5.29,97.8,0.076,0.154,0.981,0.0043,W
15.93,-0.0649,28.76,3.68,97.8,0.076,0.141,0.98,0.0074,W
15.94,-0.2306,39.02,-5.01,97.3,0.087,0.153,0.981,0.0036,W
15.95,-0.2723,-23.72,-5.28,97.7,0.08,0.157,0.984,0.0004,W
15.96,-0.1538,-71.84,1.52,97.6,0.073,0.151,0.987,0.0013,W
15.97,-0.1016,-14.73,-5.02,97.9,0.079,0.151,0.978,0.0076,W
15.98,0.0015,-8.34,1.79,97.4,0.076,0.159,0.978,0.0061,W
15.99,0.0141,39.18,-2.45,97.9,0.08,0.143,0.98,0.0066,W
16.0,0.0215,0.96,7.16,97.7,0.087,0.156,0.975,0.0088,W
16.01,0.0367,7.31,-14.69,97.6,0.077,0.15,0.984,0.0014,W
16.02,-0.0011,13.22,-7.9,97.8,0.078,0.143,0.984,0.0028,W
16.03,0.0985,77.99,1.28,97.5,0.085,0.147,0.983,0.0027,W
16.04,0.0704,21.5,0.64,97.9,0.082,0.146,0.984,0.0021,W
16.05,0.1052,47.38,3.5,97.7,0.085,0.154,0.979,0.0051,W
16.06,0.1583,23.87,-1.9,97.6,0.077,0.151,0.975,0.0103,W
16.07,0.1953,-9.93,2.22,97.6,0.076,0.157,0.98,0.0048,W
16.08,0.231,21.7,4.13,97.7,0.085,0.151,0.981,0.0037,W
16.09,0.3018,-30.78,-0.12,97.8,0.083,0.146,0.984,0.0014,W
16.1,0.3056,45.62,7.22,97.7,0.088,0.151,0.983,0.0018,W
16.11,0.301,-39.96,-3.74,97.7,0.084,0.151,0.982,0.0033,W
16.12,0.3396,0.22,1.68,97.9,0.077,0.145,0.971,0.0147,W
16.13,0.3463,-64.44,12.55,97.8,0.087,0.151,0.977,0.0073,W
16.14,0.3015,-11.5,-8.63,97.7,0.074,0.146,0.977,0.0099,W
16.15,0.2574,-78.22,-4.75,97.4,0.073,0.156,0.984,0.0011,W
16.16,0.2224,-43.54,-6.53,97.6,0.082,0.151,0.973,0.0115,W
16.17,0.1811,-35.14,-1.0,97.9,0.076,0.147,0.982,0.004,W
16.18,0.1068,49.53,-3.68,97.7,0.076,0.162,0.974,0.0098,W
16.19,0.0599,80.07,-1.37,97.8,0.078,0.163,0.983,0.0007,W
16.2,0.0704,-1.61,0.69,97.5,0.084,0.146,0.971,0.0144,W
16.21,0.0218,-8.63,-3.11,97.8,0.088,0.156,0.984,0.0002,W
16.22,0.0548,-126.33,-3.47,97.8,0.073,0.147,0.974,0.0127,W
16.23,0.0241,46.43,-2.59,97.6,0.068,0.149,0.974,0.0126,W
16.24,-0.0055,36.36,-8.52,97.9,0.087,0.143,0.974,0.0112,W
16.25,-0.0398,29.87,4.69,97.5,0.09,0.149,0.973,0.0118,W
16.26,-0.0256,-3.65,1.71,97.7,0.09,0.147,0.979,0.0059,W
16.27,-0.0055,-42.56,0.17,97.8,0.074,0.154,0.983,0.0019,W
16.28,0.0058,75.87,-3.41,97.6,0.092,0.139,0.981,0.0049,W
16.29,-0.0508,50.44,-5.55,97.9,0.077,0.146,0.979,0.0073,W
16.3,-0.0117,7.72,-4.45,97.8,0.09,0.144,0.972,0.0137,W
16.31,-0.0361,26.47,-11.23,97.7,0.081,0.144,0.982,0.0043,W
16.32,-0.0501,-52.85,5.62,97.8,0.09,0.144,0.974,0.0112,W
16.33,-0.0293,53.71,7.92,97.7,0.075,0.154,0.981,0.0044,W
16.34,-0.0459,-57.54,-4.06,97.7,0.076,0.154,0.983,0.0021,W
16.35,-0.008,-13.4,-3.51,97.6,0.078,0.147,0.986,0.0002,W
16.36,-0.0104,-11.38,4.21,97.8,0.072,0.145,0.983,0.0043,W
16.37,0.0055,-10.06,2.36,97.8,0.076,0.142,0.989,0.0024,W
16.38,0.0015,58.11,10.93,97.7,0.071,0.144,0.978,0.009,W
16.39,0.024,-73.95,-1.12,97.6,0.077,0.149,0.98,0.0053,W
16.4,0.0441,-12.17,1.46,97.9,0.08,0.149,0.974,0.0119,W
16.41,0.0533,8.24,3.38,97.4,0.084,0.147,0.971,0.0147,W
16.42,0.11,-31.61,3.4,97.5,0.088,0.157,0.983,0.0007,W
16.43,0.1125,17.92,0.03,97.7,0.087,0.147,0.983,0.0018,W
16.44,0.104,-14.73,2.89,97.3,0.081,0.147,0.985,0.0006,W
16.45,0.135,35.21,-11.17,97.7,0.079,0.158,0.971,0.0131,W
16.46,0.0685,-6.67,6.37,97.7,0.077,0.157,0.983,0.0014,W
16.47,0.0335,-53.84,-3.32,97.7,0.088,0.153,0.991,0.0063,W
16.48,-0.0115,-33.54,0.52,97.9,0.069,0.153,0.977,0.0084,W
16.49,-0.0526,-68.3,-4.06,97.8,0.075,0.151,0.974,0.0114,W
16.5,-0.0056,-120.65,-2.45,97.8,0.078,0.143,0.971,0.0155,W
16.51,-0.0914,10.25,-4.58,97.6,0.082,0.146,0.985,0.0006,W
16.52,-0.0104,9.97,-3.41,97.8,0.076,0.149,0.982,0.0041,W
16.53,-0.0206,84.9,8.97,98.0,0.094,0.144,0.97,0.0146,W
16.54,-0.0598,-9.84,7.04,97.8,0.068,0.154,0.98,0.0059,W
16.55,-0.1125,29.49,3.79,97.7,0.078,0.146,0.98,0.006,W
16.56,-0.1363,22.22,0.6,98.0,0.079,0.15,0.985,0.0009,W
16.57,0.0892,-7.9,1.67,97.8,0.079,0.145,0.981,0.0048,W
16.58,0.54,33.22,4.48,98.0,0.085,0.15,0.978,0.0072,W
16.59,1.0361,-8.27,1.94,97.8,0.077,0.159,0.983,0.0015,W
16.6,1.1986,-2.99,4.22,97.7,0.084,0.146,0.967,0.0179,W
16.61,0.855,-187.39,-6.82,97.8,0.076,0.15,0.983,0.0028,W
16.62,0.3204,6.04,1.37,97.5,0.07,0.148,0.976,0.0106,W
16.63,-0.0614,-31.33,-0.58,97.7,0.073,0.145,0.981,0.0052,W
16.64,-0.2568,-68.49,5.58,97.7,0.086,0.153,0.981,0.0032,W
16.65,-0.3255,-31.48,-3.26,97.7,0.08,0.144,0.981,0.0049,W
16.66,-0.2441,-33.32,2.7,97.4,0.076,0.154,0.979,0.0056,W
16.67,-0.1648,-72.19,-2.77,97.8,0.069,0.149,0.978,0.0083,W
16.68,-0.0954,12.69,-0.42,97.7,0.075,0.152,0.973,0.0121,W
16.69,-0.0393,-42.33,1.02,97.7,0.077,0.157,0.978,0.0065,W
16.7,-0.078,80.02,-1.09,97.7,0.083,0.152,0.977,0.0083,W
16.71,-0.015,56.15,10.37,97.9,0.075,0.149,0.981,0.0053,W
16.72,-0.0322,-37.56,-1.37,98.0,0.078,0.154,0.983,0.002,W
16.73,0.0337,1.74,0.43,97.5,0.091,0.157,0.974,0.009,W
16.74,0.0311,-12.97,-2.2,97.8,0.076,0.154,0.98,0.0047,W
16.75,0.0559,-48.44,13.28,97.8,0.08,0.153,0.986,0.0012,W
16.76,0.0832,-66.54,-0.92,97.8,0.081,0.147,0.982,0.004,W
16.77,0.1513,-62.56,4.57,97.6,0.077,0.141,0.978,0.0085,W
16.78,0.226,112.35,14.37,98.0,0.075,0.157,0.978,0.007,W
16.79,0.2564,-22.94,3.18,97.5,0.086,0.149,0.983,0.0023,W
16.8,0.2867,-7.11,13.16,97.8,0.081,0.15,0.984,0.0015,W
16.81,0.2647,11.45,15.2,97.9,0.076,0.15,0.982,0.0032,W
16.82,0.2855,3.39,17.09,97.9,0.078,0.151,0.986,0.0004,W
16.83,0.3043,68.9,16.95,97.6,0.082,0.151,0.98,0.005,W
16.84,0.2649,68.15,7.43,97.8,0.074,0.156,0.974,0.0107,W
16.85,0.2706,1.45,9.69,97.7,0.082,0.155,0.978,0.0068,W
16.86,0.1698,26.86,16.73,97.8,0.078,0.15,0.983,0.0024,W
16.87,0.1565,21.32,12.32,97.9,0.078,0.151,0.988,0.0029,W
16.88,0.0717,-1.78,22.59,97.8,0.079,0.15,0.972,0.0134,W
16.89,0.0693,-25.09,21.48,97.7,0.078,0.149,0.987,0.0014,W
16.9,0.0067,-39.32,28.96,97.5,0.075,0.151,0.98,0.006,W
16.91,-0.0494,-7.63,19.27,97.8,0.085,0.156,0.986,0.0017,W
16.92,-0.0002,21.91,28.25,97.9,0.076,0.152,0.98,0.0053,W
16.93,-0.0084,103.93,43.26,98.1,0.084,0.149,0.975,0.0102,W
16.94,-0.0309,26.09,34.79,97.8,0.077,0.152,0.993,0.0075,W
16.95,-0.037,42.86,39.86,97.6,0.086,0.141,0.987,0.0008,W
16.96,-0.033,-47.52,41.6,97.7,0.086,0.156,0.978,0.0058,W
16.97,-0.0523,-3.66,31.17,97.7,0.08,0.155,0.975,0.0094,W
16.98,-0.0614,-43.05,51.79,97.9,0.087,0.151,0.983,0.0018,W
16.99,-0.0669,-2.68,53.33,97.5,0.082,0.155,0.979,0.0052,W
17.0,-0.0302,29.89,56.6,97.7,0.081,0.149,0.981,0.0045,W
17.01,-0.034,71.87,64.95,97.8,0.071,0.149,0.982,0.0044,W
17.02,-0.0153,16.3,65.18,98.0,0.075,0.147,0.985,0.0016,W
17.03,-0.0354,-33.01,69.96,97.7,0.085,0.149,0.979,0.0059,W
17.04,-0.0685,-34.54,64.45,97.7,0.076,0.146,0.981,0.0049,W
17.05,-0.0249,46.57,63.2,97.8,0.074,0.148,0.971,0.0154,W
17.06,-0.0539,-20.38,67.88,97.8,0.075,0.145,0.984,0.0022,W
17.07,-0.0346,-35.14,71.46,98.1,0.09,0.158,0.976,0.007,W
17.08,-0.0306,75.75,79.37,97.8,0.074,0.15,0.965,0.0203,W
17.09,-0.0525,-21.48,78.61,97.5,0.085,0.145,0.98,0.0058,W
17.1,0.028,53.5,77.96,97.6,0.085,0.15,0.97,0.0144,W
17.11,0.0383,11.86,73.02,97.8,0.072,0.142,0.983,0.0038,W
17.12,0.0662,-23.32,80.99,97.9,0.073,0.16,0.99,0.0059,W
17.13,0.1072,16.83,73.49,97.7,0.083,0.146,0.973,0.0127,W
17.14,0.1228,10.22,79.56,97.7,0.084,0.151,0.982,0.0031,W
17.15,0.1288,8.46,79.58,97.6,0.078,0.148,0.977,0.0093,W
17.16,0.0289,52.87,78.81,97.7,0.084,0.149,0.975,0.01,W
17.17,0.016,-0.2,73.52,97.9,0.087,0.14,0.977,0.0094,W
17.18,-0.0223,34.92,70.49,97.7,0.084,0.154,0.98,0.0048,W
17.19,0.0037,18.57,73.94,98.0,0.081,0.145,0.983,0.0034,W
17.2,-0.0283,-7.56,73.07,97.7,0.081,0.148,0.969,0.0164,W
17.21,-0.0102,22.89,69.09,97.9,0.073,0.149,0.974,0.0118,W
17.22,-0.0146,21.68,70.96,97.6,0.075,0.153,0.979,0.0063,W
17.23,-0.0442,7.18,55.81,97.8,0.083,0.153,0.981,0.0038,W
17.24,-0.0746,30.3,60.81,98.0,0.069,0.153,0.985,0.0006,W
17.25,-0.1591,-0.45,55.17,97.6,0.082,0.142,0.977,0.0091,W
17.26,-0.1014,38.46,56.58,98.0,0.079,0.151,0.983,0.0024,W
17.27,0.19,-14.64,53.49,97.8,0.077,0.15,0.976,0.0098,W
17.28,0.7057,32.55,47.74,97.7,0.086,0.147,0.981,0.0048,W
17.29,1.1545,-103.9,36.31,97.7,0.074,0.148,0.973,0.0133,W
17.3,1.183,16.47,32.48,97.8,0.078,0.155,0.982,0.003,W
17.31,0.7052,8.41,38.95,98.0,0.081,0.15,0.976,0.009,W
17.32,0.1843,22.82,36.24,98.1,0.085,0.152,0.978,0.0065,W
17.33,-0.1275,7.79,34.68,97.7,0.075,0.15,0.977,0.0083,W
17.34,-0.3018,40.3,30.57,97.6,0.077,0.147,0.985,0.0009,W
17.35,-0.2962,-9.25,27.46,97.7,0.082,0.152,0.978,0.0071,W
17.36,-0.1938,69.59,23.41,97.9,0.088,0.145,0.981,0.0048,W
17.37,-0.0897,31.72,25.92,97.8,0.078,0.161,0.993,0.009,W
17.38,-0.0728,1.64,24.95,97.7,0.072,0.15,0.987,0.0012,W
17.39,-0.0518,100.07,7.13,97.9,0.09,0.158,0.976,0.0076,W
17.4,-0.0301,19.6,5.93,97.6,0.078,0.155,0.977,0.0073,W
17.41,-0.0285,-6.17,10.76,97.7,0.076,0.151,0.983,0.0026,W
17.42,-0.0201,-2.38,15.56,97.5,0.082,0.145,0.975,0.0104,W
17.43,0.0316,-1.46,5.56,97.7,0.083,0.155,0.976,0.0081,W
17.44,0.0508,12.47,2.54,98.1,0.077,0.154,0.977,0.0076,W
17.45,0.1219,53.83,5.46,97.8,0.078,0.153,0.977,0.0081,W
17.46,0.1003,-38.87,8.81,97.7,0.086,0.146,0.977,0.0081,W
17.47,0.1856,11.93,0.76,97.7,0.08,0.156,0.98,0.0045,W
17.48,0.2347,60.83,10.11,98.1,0.076,0.151,0.981,0.0041,W
17.49,0.2616,25.7,9.23,97.8,0.08,0.146,0.984,0.0019,W
17.5,0.3165,-63.53,0.17,98.0,0.08,0.153,0.981,0.0039,W
17.51,0.3565,52.86,5.06,97.6,0.073,0.149,0.978,0.0084,W
17.52,0.3225,16.95,6.23,97.7,0.09,0.142,0.983,0.0025,W
17.53,0.2854,34.84,6.36,97.9,0.076,0.152,0.986,0.0003,W
17.54,0.2659,-2.06,-2.57,97.7,0.092,0.153,0.98,0.0042,W
17.55,0.2506,25.72,-7.38,97.5,0.083,0.155,0.981,0.003,W
17.56,0.2115,-29.67,4.68,97.6,0.079,0.139,0.976,0.0109,W
17.57,0.1551,-42.54,4.99,97.7,0.078,0.151,0.984,0.0011,W
17.58,0.0733,-6.35,-1.2,98.1,0.081,0.144,0.985,0.0012,W
17.59,0.0793,-132.39,5.29,98.1,0.079,0.15,0.985,0.0009,W
17.6,0.0512,46.65,5.54,97.8,0.076,0.153,0.981,0.0042,W
17.61,-0.0066,-48.72,12.79,97.8,0.088,0.157,0.985,0.0009,W
17.62,0.0014,-10.3,3.51,97.9,0.079,0.142,0.98,0.0071,W
17.63,0.0138,-71.92,-1.01,97.6,0.08,0.15,0.978,0.007,W
17.64,-0.0411,17.12,4.07,97.7,0.079,0.167,0.977,0.0062,W
17.65,-0.0263,2.75,4.14,97.7,0.076,0.149,0.979,0.0069,W
17.66,-0.0092,77.8,2.68,97.8,0.073,0.153,0.982,0.0039,W
17.67,-0.0042,62.42,-0.8,97.7,0.074,0.149,0.98,0.0056,W
17.68,-0.0212,7.03,-8.09,98.1,0.083,0.157,0.979,0.005,W
17.69,-0.0286,6.84,1.02,97.8,0.075,0.149,0.981,0.0049,W
17.7,-0.0276,-72.77,-3.81,97.9,0.089,0.157,0.97,0.0135,W
17.71,0.0084,41.04,-1.16,97.9,0.072,0.144,0.984,0.003,W
17.72,0.0099,-54.74,-2.35,97.9,0.078,0.154,0.983,0.0023,W
17.73,0.0324,-14.16,-14.01,97.8,0.09,0.148,0.981,0.0038,W
17.74,0.003,38.08,-3.68,97.9,0.081,0.158,0.979,0.0047,W
17.75,-0.0078,-9.86,2.86,97.9,0.075,0.149,0.982,0.0042,W
17.76,0.0174,-90.45,4.42,97.6,0.074,0.145,0.976,0.011,W
17.77,-0.022,-46.23,-0.92,98.0,0.083,0.151,0.979,0.006,W
17.78,-0.0252,-35.81,-2.93,97.6,0.071,0.146,0.983,0.0036,W
17.79,0.0022,61.93,-2.27,97.9,0.083,0.145,0.983,0.0033,W
17.8,0.0192,8.56,-0.74,97.8,0.083,0.15,0.976,0.0094,W
17.81,0.0326,30.49,-2.23,97.9,0.074,0.155,0.979,0.0055,W
17.82,0.0472,9.27,0.04,97.7,0.077,0.144,0.97,0.0162,W
17.83,0.0953,92.37,-3.88,97.8,0.075,0.15,0.982,0.0042,W
17.84,0.1295,-42.78,3.04,98.0,0.074,0.155,0.973,0.0115,W
17.85,0.1281,-53.81,-4.38,97.7,0.079,0.152,0.976,0.0095,W
17.86,0.1372,1.87,-2.58,97.9,0.073,0.148,0.978,0.0079,W
17.87,0.1382,36.08,-7.12,97.7,0.079,0.154,0.986,0.0014,W
17.88,0.0845,-145.67,-5.91,97.9,0.08,0.147,0.975,0.0106,W
17.89,0.0681,-31.43,4.75,97.7,0.088,0.156,0.982,0.0019,W
17.9,0.0391,52.48,2.37,98.3,0.075,0.148,0.989,0.0026,W
17.91,0.0312,20.23,0.61,98.1,0.084,0.143,0.983,0.0031,W
17.92,0.025,0.72,-5.44,98.1,0.079,0.145,0.976,0.0105,W
17.93,-0.0145,10.75,4.36,97.9,0.082,0.154,0.986,0.001,W
17.94,0.0288,12.52,-0.69,97.8,0.083,0.151,0.982,0.0027,W
17.95,-0.028,7.11,-2.64,97.8,0.081,0.157,0.984,0.0001,W
17.96,-0.0813,-69.38,4.78,97.9,0.08,0.15,0.976,0.009,W
17.97,-0.0961,-18.07,-3.64,98.0,0.077,0.151,0.982,0.0031,W
17.98,0.0672,-47.91,-4.97,97.9,0.082,0.153,0.976,0.0085,W
17.99,0.4804,-0.28,-3.05,97.9,0.081,0.145,0.976,0.0103,W
18.0,0.9438,-4.43,-7.51,98.2,0.079,0.145,0.985,0.0008,W
18.01,1.2581,-48.3,-4.3,98.1,0.076,0.145,0.973,0.0135,W
18.02,1.0409,40.04,9.71,97.9,0.071,0.148,0.973,0.0132,W
18.03,0.5471,-7.16,4.08,97.8,0.083,0.15,0.988,0.0032,W
18.04,0.0882,-0.75,-8.5,97.9,0.073,0.152,0.971,0.0142,W
18.05,-0.1862,-37.04,10.92,97.8,0.086,0.155,0.984,0.0002,W
18.06,-0.2717,-2.32,3.9,97.8,0.082,0.15,0.979,0.0059,W
18.07,-0.2538,-12.45,3.91,97.8,0.076,0.149,0.972,0.014,W
18.08,-0.1274,41.94,13.61,97.9,0.084,0.154,0.98,0.0041,W
18.09,-0.0706,45.88,-4.8,97.9,0.085,0.154,0.983,0.0012,W
18.1,0.0033,-81.86,-7.98,97.8,0.078,0.148,0.981,0.0044,W
18.11,0.0497,-12.48,-1.4,97.7,0.074,0.146,0.979,0.0077,W
18.12,0.0527,-41.96,9.38,98.0,0.087,0.15,0.978,0.0063,W
18.13,0.096,-34.42,13.7,97.9,0.082,0.154,0.976,0.0084,W
18.14,0.0596,7.71,0.1,98.0,0.077,0.143,0.977,0.0097,W
18.15,0.0707,-16.66,-5.17,97.9,0.085,0.142,0.989,0.0025,W
18.16,0.1474,22.79,-0.74,97.9,0.072,0.151,0.976,0.0101,W
18.17,0.1654,38.27,1.65,97.9,0.085,0.155,0.987,0.0029,W
18.18,0.2099,40.48,5.87,97.9,0.079,0.143,0.979,0.0073,W
18.19,0.2236,-96.83,-13.97,97.9,0.074,0.161,0.974,0.0098,W
18.2,0.296,-57.23,0.33,98.1,0.078,0.157,0.984,0.0008,W
18.21,0.3319,11.76,0.34,97.7,0.075,0.152,0.975,0.0106,W
18.22,0.366,-71.86,1.32,97.9,0.084,0.153,0.971,0.0133,W
18.23,0.3564,33.06,3.7,97.8,0.075,0.147,0.981,0.0052,W
18.24,0.3865,-8.14,-5.49,98.2,0.088,0.151,0.987,0.0027,W
18.25,0.3242,8.99,-2.85,98.2,0.079,0.154,0.984,0.0009,W
18.26,0.2967,-44.4,5.59,97.9,0.079,0.158,0.984,0.0,W
18.27,0.2634,60.92,-2.81,97.5,0.086,0.147,0.975,0.0106,W
18.28,0.2162,-12.5,10.84,97.6,0.075,0.147,0.986,0.0005,W
18.29,0.203,-56.9,6.88,98.0,0.077,0.146,0.982,0.0045,W
18.3,0.1703,71.77,8.11,97.7,0.079,0.143,0.98,0.0066,W
18.31,0.0916,64.57,5.53,97.9,0.084,0.147,0.977,0.0081,W
18.32,0.0751,16.99,-2.55,97.9,0.076,0.143,0.975,0.0118,W
18.33,0.091,42.04,5.36,98.0,0.076,0.157,0.978,0.0066,W
18.34,0.0473,96.18,1.64,97.7,0.081,0.149,0.987,0.0013,W
18.35,0.0482,57.68,2.84,97.7,0.079,0.156,0.977,0.0074,W
18.36,0.0179,39.89,11.16,97.8,0.078,0.145,0.981,0.005,W
18.37,0.0461,37.44,8.26,97.8,0.079,0.145,0.978,0.0079,W
18.38,0.0668,28.76,-7.94,97.8,0.077,0.15,0.972,0.0137,W
18.39,0.0431,-19.72,5.82,97.8,0.076,0.144,0.974,0.0122,W
18.4,0.0421,3.31,8.56,97.8,0.082,0.159,0.982,0.0018,W
18.41,0.0461,-37.26,7.82,98.2,0.078,0.153,0.979,0.0058,W
18.42,0.0476,-48.72,9.45,97.7,0.076,0.154,0.978,0.0072,W
18.43,0.0459,-30.05,-0.73,97.6,0.075,0.148,0.987,0.0007,W
18.44,0.0523,43.92,2.17,97.7,0.089,0.15,0.984,0.0005,W
18.45,0.0481,59.8,-3.71,98.0,0.082,0.157,0.974,0.0099,W
18.46,0.0481,10.72,17.69,97.8,0.074,0.145,0.981,0.0052,W
18.47,0.0303,-13.52,-7.09,98.1,0.076,0.145,0.986,0.0008,W
18.48,0.0284,20.13,-6.96,98.1,0.086,0.15,0.972,0.0132,W
18.49,0.078,-34.82,7.61,97.8,0.08,0.149,0.978,0.007,W
18.5,0.1496,-30.05,-0.17,98.0,0.079,0.144,0.987,0.0001,W
18.51,0.1458,-3.34,-0.78,98.2,0.073,0.15,0.982,0.0039,W
18.52,0.1823,-51.01,-8.33,98.0,0.072,0.155,0.978,0.0075,W
18.53,0.144,-7.79,6.5,98.1,0.078,0.154,0.982,0.003,W
18.54,0.1938,4.34,-3.82,97.9,0.075,0.151,0.971,0.0144,W
18.55,0.1425,-46.87,11.14,97.6,0.083,0.148,0.975,0.0101,W
18.56,0.1297,46.41,-7.09,98.0,0.073,0.159,0.977,0.0071,W
18.57,0.0947,86.64,-0.42,97.9,0.076,0.157,0.986,0.001,W
18.58,0.0984,78.87,6.89,98.0,0.074,0.156,0.976,0.0089,W
18.59,0.0631,3.28,-4.13,97.7,0.088,0.149,0.979,0.006,W
18.6,0.0539,6.78,2.64,97.6,0.087,0.147,0.98,0.0058,W
18.61,0.1018,-17.17,-9.08,98.0,0.08,0.148,0.966,0.0199,W
18.62,0.0671,-21.0,12.68,98.0,0.069,0.147,0.978,0.0082,W
18.63,0.0125,-58.63,6.48,97.8,0.081,0.142,0.981,0.0055,W
18.64,-0.0648,-38.78,0.19,97.8,0.077,0.151,0.979,0.0064,W
18.65,-0.0809,-40.58,-0.45,97.9,0.078,0.156,0.98,0.0044,W
18.66,0.1195,29.69,11.28,98.1,0.074,0.149,0.975,0.0109,W
18.67,0.4985,5.49,-6.37,97.8,0.075,0.149,0.984,0.0017,W
18.68,0.9932,4.19,1.27,97.8,0.087,0.154,0.982,0.0025,W
18.69,1.2652,22.06,1.42,97.8,0.079,0.152,0.982,0.0035,W
18.7,1.0572,-10.91,-0.85,97.9,0.086,0.158,0.973,0.0108,W
18.71,0.5446,-67.21,-0.44,98.0,0.083,0.155,0.983,0.0018,W
18.72,0.0849,35.85,-5.26,98.1,0.079,0.151,0.978,0.0077,W
18.73,-0.1474,-13.85,-1.85,97.7,0.075,0.155,0.975,0.0097,W
18.74,-0.2328,9.03,0.55,97.9,0.076,0.158,0.988,0.0032,W
18.75,-0.1717,-64.56,-5.63,98.0,0.086,0.154,0.981,0.0031,W
18.76,-0.0392,-15.55,-2.91,97.9,0.079,0.145,0.984,0.0021,W
18.77,-0.0077,20.69,3.29,97.6,0.08,0.149,0.981,0.0041,W
18.78,0.0478,-19.42,1.1,97.8,0.085,0.146,0.973,0.0127,W
18.79,0.061,150.22,-3.26,97.8,0.083,0.152,0.981,0.0039,W
18.8,0.0697,14.03,-0.11,97.9,0.075,0.156,0.968,0.0171,W
18.81,0.0979,-3.05,-10.53,97.9,0.071,0.15,0.975,0.0109,W
18.82,0.0844,-42.57,-6.05,98.0,0.08,0.146,0.979,0.0071,W
18.83,0.1491,2.33,4.78,97.8,0.082,0.152,0.976,0.0087,W
18.84,0.1288,-143.45,-4.14,97.7,0.077,0.153,0.994,0.0083,W
18.85,0.2182,-2.22,2.54,97.9,0.077,0.14,0.973,0.0136,W
18.86,0.2639,-12.56,-2.54,97.9,0.076,0.159,0.972,0.0121,W
18.87,0.3228,7.54,-2.18,97.8,0.085,0.153,0.978,0.0063,W
18.88,0.3362,-28.58,5.66,97.9,0.074,0.155,0.984,0.0009,W
18.89,0.3496,-17.16,-4.42,97.8,0.085,0.148,0.986,0.0002,W
18.9,0.4334,-58.0,2.71,97.9,0.088,0.146,0.975,0.0099,W
18.91,0.4196,-32.1,1.46,98.0,0.081,0.149,0.987,0.0016,W
18.92,0.354,-40.12,3.99,98.2,0.078,0.154,0.98,0.0052,W
18.93,0.3455,-18.7,-0.69,97.8,0.081,0.156,0.978,0.0058,W
18.94,0.3243,-79.05,-6.93,97.9,0.078,0.146,0.987,0.0005,W
18.95,0.2566,-9.29,-1.02,98.1,0.082,0.16,0.983,0.0009,W
18.96,0.2759,4.99,3.09,97.8,0.083,0.145,0.984,0.0019,W
18.97,0.177,14.08,-4.78,98.1,0.085,0.148,0.979,0.0063,W
18.98,0.106,4.85,-6.06,97.8,0.07,0.148,0.969,0.0173,W
18.99,0.145,55.01,-4.93,97.9,0.077,0.154,0.979,0.0055,W
19.0,0.101,27.04,-3.3,97.7,0.074,0.156,0.982,0.0032,W
19.01,0.1053,18.39,2.62,97.9,0.074,0.15,0.977,0.0087,W
19.02,0.0645,-38.3,-7.29,98.0,0.078,0.151,0.973,0.012,W
19.03,0.0592,-18.7,3.11,98.1,0.081,0.149,0.984,0.001,W
19.04,0.0703,-19.37,3.82,98.0,0.082,0.147,0.983,0.0025,W
19.05,0.081,23.04,-1.09,97.8,0.082,0.153,0.985,0.0003,W
19.06,0.0414,-15.55,5.94,98.1,0.082,0.154,0.979,0.0055,W
19.07,0.0198,57.87,13.13,98.0,0.074,0.155,0.98,0.0048,W
19.08,0.0217,31.61,5.51,97.8,0.076,0.151,0.98,0.0053,W
19.09,0.0667,-45.95,2.4,98.0,0.075,0.15,0.979,0.0067,W
19.1,0.0054,0.17,-2.51,97.8,0.08,0.151,0.974,0.0115,W
19.11,0.0169,-5.6,1.82,98.3,0.092,0.147,0.977,0.0078,W
19.12,0.0599,60.31,-12.75,97.8,0.072,0.149,0.981,0.005,W
19.13,0.0131,27.44,6.78,97.8,0.089,0.151,0.98,0.0042,W
19.14,0.0394,31.65,-12.13,98.0,0.08,0.159,0.986,0.0024,W
19.15,0.0831,-39.61,5.9,97.7,0.083,0.149,0.983,0.0027,W
19.16,0.0332,-8.78,1.31,98.1,0.088,0.14,0.979,0.0075,W
19.17,0.0487,46.38,-1.49,97.8,0.084,0.154,0.985,0.0005,W
19.18,0.0386,-11.43,7.36,97.7,0.084,0.157,0.98,0.0041,W
19.19,0.0647,-8.3,3.57,97.6,0.081,0.155,0.98,0.005,W
19.2,0.1067,-32.65,1.61,97.9,0.076,0.16,0.975,0.0094,W
19.21,0.1613,29.83,-3.15,97.8,0.078,0.147,0.984,0.0017,W
19.22,0.186,-47.82,-1.03,97.8,0.079,0.145,0.976,0.0106,W
19.23,0.1576,-25.01,-1.03,97.8,0.082,0.162,0.972,0.0111,W
19.24,0.1509,-19.41,-7.76,97.9,0.085,0.145,0.979,0.0066,W
19.25,0.1076,52.16,-1.48,98.1,0.076,0.154,0.98,0.0049,W
19.26,0.0724,-21.63,-0.27,98.0,0.081,0.143,0.969,0.0173,W
19.27,0.0564,13.39,-3.9,97.9,0.079,0.149,0.975,0.0101,W
19.28,0.0441,39.81,1.3,98.3,0.081,0.153,0.978,0.0069,W
19.29,0.0545,-40.94,-0.34,98.2,0.072,0.156,0.981,0.0043,W
19.3,0.0112,-9.79,4.01,98.1,0.072,0.15,0.98,0.0065,W
19.31,0.0397,-97.53,1.6,97.8,0.088,0.139,0.982,0.0047,W
19.32,0.0111,52.71,3.34,98.0,0.081,0.149,0.979,0.0061,W
19.33,-0.0024,26.14,2.68,97.7,0.069,0.153,0.97,0.0153,W
19.34,-0.0943,32.35,-0.53,97.9,0.086,0.152,0.98,0.0042,W
19.35,-0.0267,59.12,-3.46,97.8,0.083,0.148,0.98,0.0052,W
19.36,0.2362,9.1,-4.97,97.8,0.086,0.155,0.979,0.0048,W
19.37,0.7284,39.49,-5.79,97.6,0.077,0.152,0.973,0.0121,W
19.38,1.1741,1.05,4.41,97.6,0.082,0.152,0.983,0.0017,W
19.39,1.2598,14.66,6.48,97.8,0.07,0.153,0.988,0.002,W
19.4,0.8416,-65.51,9.03,98.0,0.071,0.144,0.978,0.0092,W
19.41,0.3302,114.61,3.63,97.9,0.064,0.142,0.983,0.0044,W
19.42,-0.0539,-25.83,-1.4,97.8,0.08,0.15,0.977,0.0086,W
19.43,-0.2336,3.81,3.35,97.9,0.079,0.151,0.981,0.0043,W
19.44,-0.2646,27.14,3.34,98.3,0.073,0.144,0.98,0.0071,W
19.45,-0.2012,21.33,4.75,98.0,0.08,0.15,0.967,0.0183,W
19.46,-0.0278,1.18,3.77,97.8,0.081,0.147,0.973,0.0126,W
19.47,0.0043,-7.86,-2.71,98.2,0.084,0.155,0.987,0.0024,W
19.48,-0.0024,-19.36,-3.87,98.0,0.079,0.154,0.977,0.0073,W
19.49,0.0345,33.5,1.49,98.1,0.079,0.15,0.975,0.0104,W
19.5,0.002,11.29,1.63,97.7,0.083,0.145,0.983,0.003,W
19.51,0.0875,-18.31,5.21,97.7,0.078,0.154,0.981,0.0043,W
19.52,0.0738,-39.46,1.63,98.0,0.086,0.145,0.989,0.0029,W
19.53,0.0687,7.93,3.14,97.6,0.078,0.147,0.982,0.0037,W
19.54,0.1161,-41.7,3.33,98.0,0.079,0.148,0.977,0.0083,W
19.55,0.1933,-98.47,-0.29,97.9,0.08,0.148,0.971,0.0146,W
19.56,0.2397,27.52,-9.11,98.0,0.077,0.142,0.983,0.004,W
19.57,0.2377,-39.96,3.92,98.0,0.085,0.146,0.984,0.0017,W
19.58,0.2726,-81.92,-8.24,97.8,0.076,0.156,0.971,0.0136,W
19.59,0.3008,-3.12,-9.09,98.0,0.079,0.145,0.978,0.0084,W
19.6,0.3615,-69.74,-8.41,98.0,0.081,0.149,0.98,0.0057,W
19.61,0.332,72.69,-5.16,98.2,0.082,0.143,0.977,0.0095,W
19.62,0.2862,-2.02,4.79,98.0,0.09,0.146,0.978,0.0074,W
19.63,0.3294,20.88,-0.59,97.9,0.093,0.158,0.978,0.0045,W
19.64,0.2882,27.84,-7.48,98.0,0.09,0.148,0.976,0.0088,W
19.65,0.2016,68.27,-0.56,98.2,0.081,0.148,0.98,0.0061,W
19.66,0.136,34.58,1.43,98.1,0.089,0.151,0.975,0.0092,W
19.67,0.1158,-56.27,5.99,97.9,0.091,0.154,0.983,0.0003,W
19.68,0.0919,-49.01,-2.3,98.0,0.084,0.152,0.987,0.0017,W
19.69,0.0806,1.2,-8.44,98.1,0.078,0.149,0.975,0.0102,W
19.7,0.0171,-12.6,-12.24,97.8,0.084,0.154,0.98,0.0041,W
19.71,0.0122,19.74,-5.25,98.2,0.083,0.15,0.972,0.0131,W
19.72,-0.0057,61.49,-4.39,98.1,0.084,0.153,0.976,0.0084,W
19.73,0.0031,90.94,-3.39,97.9,0.08,0.158,0.977,0.0073,W
19.74,0.0088,62.2,5.64,98.0,0.083,0.161,0.984,0.001,W
19.75,-0.0177,111.88,-3.2,98.1,0.083,0.159,0.984,0.0004,W
19.76,-0.0348,3.0,2.54,97.9,0.086,0.149,0.977,0.0077,W
19.77,-0.0337,-79.31,2.61,98.0,0.079,0.158,0.982,0.002,W
19.78,0.0088,31.89,-2.23,98.1,0.078,0.158,0.98,0.004,W
19.79,-0.0436,16.47,-2.33,97.9,0.079,0.155,0.985,0.0,W
19.8,-0.0351,33.78,5.68,98.1,0.071,0.146,0.983,0.0034,W
19.81,0.0017,-32.36,2.7,97.8,0.083,0.153,0.972,0.0121,W
19.82,-0.0092,-1.06,-2.54,97.8,0.084,0.148,0.982,0.0033,W
19.83,0.0087,-75.95,5.71,98.2,0.07,0.153,0.977,0.0083,W
19.84,-0.0094,2.12,3.75,97.8,0.083,0.154,0.98,0.0049,W
19.85,-0.0322,-73.82,2.7,98.1,0.071,0.155,0.984,0.0009,W
19.86,-0.014,7.75,8.17,98.1,0.09,0.149,0.972,0.0124,W
19.87,0.0028,15.33,2.02,98.0,0.082,0.143,0.988,0.0013,W
19.88,0.0335,-21.49,2.68,98.0,0.083,0.145,0.981,0.0048,W
19.89,0.0599,17.23,-3.46,97.8,0.08,0.143,0.984,0.0025,W
19.9,0.104,136.66,1.29,98.1,0.081,0.149,0.976,0.0096,W
19.91,0.1059,-19.57,-0.19,97.7,0.075,0.154,0.974,0.0108,W
19.92,0.1093,-19.65,2.71,98.2,0.087,0.151,0.975,0.0098,W
19.93,0.1092,28.0,-2.0,98.2,0.081,0.157,0.984,0.0001,W
19.94,0.0597,-31.27,2.71,98.1,0.088,0.153,0.978,0.0062,W
19.95,0.0448,-50.27,2.79,98.0,0.08,0.142,0.978,0.009,W
19.96,-0.022,-80.05,-0.34,98.1,0.083,0.149,0.979,0.0061,W
19.97,-0.0173,20.77,-2.37,97.9,0.089,0.156,0.98,0.0039,W
19.98,0.0052,105.23,3.64,98.0,0.081,0.152,0.981,0.0035,W
19.99,-0.056,6.03,-0.1,98.2,0.072,0.142,0.978,0.0093,W
20.0,0.0259,55.23,-2.26,98.0,0.079,0.145,0.985,0.0012,W
20.01,-0.0306,37.11,-6.64,98.1,0.072,0.149,0.979,0.0075,W
20.02,-0.0601,-6.97,-6.14,98.0,0.087,0.148,0.977,0.0085,W
20.03,-0.1048,41.25,1.12,98.2,0.081,0.155,0.978,0.0061,W
20.04,-0.0972,4.7,-6.94,98.0,0.1,0.161,0.977,0.0049,W
20.05,0.1742,-35.98,-7.02,98.1,0.08,0.145,0.979,0.0071,W
20.06,0.6379,25.48,5.5,97.9,0.07,0.154,0.975,0.0108,W
20.07,1.094,9.68,0.8,98.1,0.091,0.15,0.988,0.0035,W
20.08,1.161,-37.24,3.05,98.0,0.082,0.148,0.977,0.008,W
20.09,0.7789,-36.3,-2.16,97.9,0.089,0.143,0.99,0.0039,W
20.1,0.2935,59.68,1.22,97.9,0.077,0.15,0.975,0.0102,W
20.11,-0.1117,-13.99,8.07,98.2,0.074,0.144,0.976,0.0104,W
20.12,-0.2771,-68.61,4.16,97.9,0.069,0.154,0.982,0.0038,W
20.13,-0.289,-114.6,0.1,98.1,0.084,0.141,0.986,0.0004,W
20.14,-0.2681,-65.07,-6.77,97.7,0.079,0.15,0.978,0.0079,W
20.15,-0.1265,9.44,4.17,98.1,0.088,0.155,0.983,0.0011,W
20.16,-0.0203,-22.35,1.71,98.2,0.08,0.157,0.976,0.0081,W
20.17,-0.064,38.26,-4.25,98.0,0.077,0.146,0.971,0.0146,W
20.18,-0.0276,-21.1,-5.19,97.9,0.08,0.148,0.983,0.0028,W
20.19,-0.0307,57.08,5.11,97.9,0.084,0.149,0.978,0.0074,W
20.2,-0.0168,40.28,10.62,97.8,0.083,0.157,0.978,0.006,W
20.21,0.0072,56.91,-2.62,98.2,0.08,0.147,0.985,0.0008,W
20.22,0.0522,-8.3,1.84,97.8,0.084,0.153,0.98,0.0046,W
20.23,0.0453,-29.33,0.01,98.1,0.082,0.153,0.99,0.0054,W
20.24,0.1377,19.03,4.48,98.1,0.077,0.149,0.983,0.0028,W
20.25,0.1389,-17.5,1.25,98.0,0.074,0.158,0.981,0.0039,W
20.26,0.2285,23.27,-5.79,97.9,0.08,0.148,0.986,0.0005,W
20.27,0.2415,-15.27,0.43,97.9,0.076,0.159,0.982,0.002,W
20.28,0.3123,-84.58,1.88,97.9,0.078,0.153,0.979,0.006,W
20.29,0.3019,-14.92,-6.43,98.2,0.083,0.147,0.98,0.0051,W
20.3,0.2929,41.19,-0.51,98.1,0.077,0.145,0.975,0.0108,W
20.31,0.3125,-69.5,6.95,97.9,0.083,0.163,0.977,0.0057,W
20.32,0.2711,34.3,-0.29,97.6,0.076,0.153,0.976,0.0091,W
20.33,0.2128,-1.42,0.74,97.9,0.073,0.144,0.982,0.0048,W
20.34,0.1651,-8.62,6.0,98.0,0.076,0.149,0.979,0.0064,W
20.35,0.1151,-3.02,-1.47,97.8,0.09,0.15,0.989,0.0046,W
20.36,0.0746,-37.79,-2.88,98.2,0.08,0.154,0.971,0.0134,W
20.37,0.0522,-76.72,-3.16,98.1,0.079,0.149,0.983,0.003,W
20.38,0.0119,38.49,5.33,98.1,0.084,0.143,0.98,0.0057,W
20.39,-0.0191,-7.84,-5.32,98.1,0.079,0.147,0.983,0.003,W
20.4,-0.031,-55.61,-0.74,98.0,0.08,0.15,0.977,0.0081,W
20.41,-0.0726,-2.23,0.25,98.2,0.09,0.152,0.983,0.0017,W
20.42,-0.047,80.05,-8.94,98.0,0.077,0.154,0.971,0.0141,W
20.43,-0.0102,-31.58,-0.7,98.2,0.082,0.146,0.98,0.0056,W
20.44,-0.0053,33.19,-2.3,98.2,0.079,0.155,0.975,0.0092,W
20.45,-0.0637,6.82,4.7,98.2,0.086,0.156,0.98,0.004,W
20.46,-0.0569,19.58,0.54,98.1,0.079,0.149,0.98,0.0056,W
20.47,-0.0331,-28.26,-4.15,97.9,0.076,0.147,0.975,0.0115,W
20.48,-0.0728,50.09,2.79,98.1,0.083,0.149,0.987,0.0017,W
20.49,-0.0424,-35.96,1.43,97.8,0.082,0.149,0.975,0.0104,W
20.5,-0.0364,95.37,-1.88,98.1,0.077,0.154,0.976,0.0088,W
20.51,-0.0499,61.83,2.4,98.1,0.092,0.149,0.982,0.0026,W
20.52,-0.0668,-43.45,5.31,98.5,0.073,0.156,0.98,0.0046,W
20.53,-0.0275,-76.46,-1.12,98.2,0.08,0.146,0.98,0.0063,W
20.54,-0.0276,-6.3,-6.1,98.1,0.076,0.148,0.976,0.0101,W
20.55,-0.0262,-82.43,7.76,98.1,0.081,0.147,0.963,0.0221,W
20.56,0.0046,-12.05,-6.14,98.0,0.084,0.157,0.975,0.0092,W
20.57,0.0065,90.39,0.55,98.1,0.077,0.154,0.98,0.0052,W
20.58,0.0306,18.45,9.3,98.4,0.08,0.151,0.977,0.0084,W
20.59,0.0588,-16.85,2.22,97.6,0.08,0.152,0.976,0.0093,W
20.6,0.0966,-49.59,-6.79,98.0,0.079,0.146,0.983,0.003,W
20.61,0.1057,91.25,5.04,97.7,0.086,0.155,0.975,0.0094,W
20.62,0.1181,10.19,4.17,98.5,0.081,0.156,0.973,0.0113,W
20.63,0.0538,57.38,1.26,98.0,0.08,0.149,0.979,0.0065,W
20.64,-0.0092,32.54,-4.09,97.9,0.071,0.159,0.977,0.0075,W
20.65,0.0115,2.53,2.65,98.1,0.072,0.143,0.973,0.0137,W
20.66,-0.0543,-53.91,2.27,97.9,0.084,0.152,0.98,0.0053,W
20.67,-0.0293,30.71,-6.27,97.9,0.079,0.154,0.979,0.0057,W
20.68,-0.0248,-47.23,-3.8,98.0,0.079,0.144,0.992,0.0057,W
20.69,-0.0897,9.88,1.18,97.8,0.082,0.15,0.981,0.0046,W
20.7,-0.0519,-2.77,9.62,98.1,0.083,0.152,0.972,0.0125,W
20.71,-0.0197,-79.18,4.51,97.9,0.081,0.146,0.968,0.0173,W
20.72,-0.0949,-51.31,-1.22,98.1,0.08,0.15,0.984,0.0017,W
20.73,-0.1799,-12.06,4.87,98.0,0.079,0.148,0.982,0.0034,W
20.74,-0.0242,-77.98,9.38,98.1,0.079,0.139,0.989,0.0016,W
20.75,0.3492,91.28,2.42,98.0,0.078,0.149,0.985,0.0008,W
20.76,0.8566,-31.15,-8.86,98.3,0.079,0.148,0.978,0.0077,W
20.77,1.1719,61.51,6.0,97.9,0.072,0.15,0.989,0.0026,W
20.78,1.0611,37.11,3.49,98.2,0.084,0.153,0.982,0.0025,W
20.79,0.5404,16.95,-1.53,98.2,0.073,0.143,0.98,0.0071,W
20.8,0.0894,-36.33,-3.97,98.1,0.074,0.151,0.982,0.0037,W
20.81,-0.2119,17.44,1.01,98.1,0.083,0.152,0.974,0.0111,W
20.82,-0.3548,81.06,0.87,98.3,0.075,0.149,0.986,0.0003,W
20.83,-0.28,55.29,-2.83,98.2,0.081,0.151,0.987,0.0015,W
20.84,-0.1718,31.31,2.13,98.1,0.078,0.145,0.984,0.0026,W
20.85,-0.1366,-4.85,2.84,98.0,0.09,0.154,0.989,0.0055,W
20.86,-0.0273,49.98,-7.59,98.2,0.088,0.146,0.976,0.0091,W
20.87,-0.042,-54.43,-3.77,97.9,0.081,0.148,0.977,0.0087,W
20.88,-0.0509,-54.96,1.98,98.1,0.083,0.146,0.974,0.012,W
20.89,-0.0648,4.25,-3.98,97.7,0.088,0.143,0.975,0.0108,W
20.9,-0.0053,-35.23,-10.26,97.9,0.073,0.153,0.983,0.0028,W
20.91,-0.0006,55.98,1.78,98.0,0.074,0.157,0.98,0.0044,W
20.92,0.0614,-55.85,-6.99,98.0,0.082,0.15,0.983,0.0017,W
20.93,0.0661,-20.36,2.77,98.0,0.077,0.152,0.983,0.0028,W
20.94,0.131,-2.95,1.78,98.2,0.081,0.147,0.975,0.0105,W
20.95,0.2147,-18.35,-6.77,98.1,0.082,0.153,0.979,0.0054,W
20.96,0.2464,-35.08,6.58,98.0,0.082,0.15,0.982,0.0032,W
20.97,0.2699,23.0,3.26,98.0,0.078,0.154,0.981,0.004,W
20.98,0.2888,53.05,-5.52,98.0,0.075,0.144,0.983,0.0035,W
20.99,0.3042,-21.15,-4.44,98.1,0.083,0.146,0.985,0.0009,W
21.0,0.3172,-3.84,2.84,98.1,0.075,0.144,0.976,0.0105,W
21.01,0.2582,-33.94,8.89,98.1,0.072,0.146,0.985,0.0013,W
21.02,0.2387,-36.43,1.4,97.9,0.084,0.148,0.986,0.001,W
21.03,0.1995,21.48,2.48,98.2,0.085,0.147,0.978,0.0074,W
21.04,0.161,5.58,3.83,97.8,0.081,0.148,0.974,0.0113,W
21.05,0.153,-17.6,-5.53,97.7,0.088,0.148,0.977,0.008,W
21.06,0.1076,83.33,2.44,97.8,0.08,0.142,0.967,0.0192,W
21.07,0.0255,-26.71,-8.47,98.3,0.085,0.158,0.977,0.007,W
21.08,0.0413,-47.86,2.49,98.5,0.082,0.151,0.987,0.0015,W
21.09,0.0451,-56.39,-2.88,98.7,0.09,0.154,0.981,0.0029,W
21.1,-0.0417,-20.22,3.23,98.3,0.082,0.147,0.985,0.0003,W
21.11,-0.0178,-57.27,4.62,98.1,0.077,0.15,0.987,0.0016,W
21.12,-0.009,28.14,-2.71,97.9,0.077,0.152,0.982,0.003,W
21.13,-0.0448,4.09,-5.85,98.1,0.071,0.14,0.988,0.0001,W
21.14,-0.0458,-67.58,-0.79,98.3,0.077,0.153,0.984,0.0016,W
21.15,-0.0393,11.81,-4.25,97.9,0.084,0.151,0.977,0.0074,W
21.16,-0.0764,-8.88,2.03,98.1,0.078,0.152,0.981,0.0045,W
21.17,-0.0427,-16.98,2.87,98.2,0.08,0.14,0.975,0.0117,W
21.18,-0.0155,-40.34,-0.65,98.1,0.078,0.147,0.979,0.0066,W
21.19,-0.0222,26.04,4.47,98.2,0.075,0.154,0.983,0.0025,W
21.2,-0.0541,-22.99,3.08,98.4,0.082,0.157,0.986,0.0022,W
21.21,-0.0187,16.34,-4.49,98.1,0.078,0.15,0.979,0.0061,W
21.22,-0.0166,1.45,7.95,98.0,0.083,0.15,0.973,0.0115,W
21.23,-0.016,-9.47,-4.72,98.1,0.074,0.149,0.982,0.0036,W
21.24,-0.0086,-19.22,3.52,98.3,0.084,0.155,0.976,0.0079,W
21.25,0.0122,-41.29,0.07,98.0,0.079,0.146,0.975,0.0111,W
21.26,0.0469,38.39,-0.57,98.3,0.081,0.148,0.981,0.0048,W
21.27,-0.0323,10.85,3.5,98.1,0.085,0.145,0.983,0.003,W
21.28,0.0265,-28.5,-1.22,98.3,0.077,0.151,0.975,0.0106,W
21.29,0.0986,12.85,-3.17,98.1,0.084,0.14,0.967,0.0193,W
21.3,0.1384,18.24,0.42,98.3,0.088,0.154,0.986,0.0013,W
21.31,0.1249,-112.67,9.35,98.1,0.079,0.15,0.982,0.0038,W
21.32,0.1667,60.25,6.19,98.2,0.083,0.156,0.974,0.01,W
21.33,0.1255,-5.39,-2.99,97.8,0.08,0.151,0.986,0.0003,W
21.34,0.1107,-4.57,-7.34,98.1,0.068,0.152,0.976,0.0098,W
21.35,0.025,54.76,-6.16,98.3,0.083,0.147,0.976,0.0096,W
21.36,0.0659,23.96,-2.01,98.3,0.086,0.149,0.979,0.0061,W
21.37,0.0268,32.12,4.12,98.2,0.079,0.152,0.975,0.0104,W
21.38,0.0014,-9.6,9.13,98.1,0.072,0.154,0.975,0.0102,W
21.39,-0.0285,20.32,4.33,98.2,0.082,0.151,0.982,0.0028,W
21.4,0.0242,12.0,4.46,98.4,0.077,0.152,0.986,0.0004,W
21.41,-0.0022,-11.49,-3.99,98.2,0.075,0.158,0.97,0.014,W
21.42,-0.0611,15.52,-1.1,98.3,0.093,0.145,0.978,0.0066,W
21.43,-0.0872,-5.28,5.38,97.8,0.08,0.145,0.98,0.0061,W
21.44,-0.0974,-36.71,-3.09,98.2,0.077,0.154,0.989,0.0043,W
